File: Tests de traction/Fichiers source/04_07_2016/Sample_1_250N.txt
Time (s)	Load (N)	Machine Extension (mm)
0
0,03463	0,079251	0,000012297
0,06927	0,16071	0,000026157
0,1039	0,24217	0,000040017
0,1385	0,32363	0,000053877
0,1732	0,40509	0,000067737
0,2078	0,48655	0,000081597
0,2424	0,56801	0,000095457
0,2771	0,64947	0,00010932
0,3117	0,73093	0,00012318
0,3463	0,81239	0,00013704
0,381	0,89386	0,0023621
0,4156	0,97532	0,010002
0,4502	1,0568	0,032628
0,4849	1,1382	0,038062
0,5195	1,2197	0,04323
0,5541	1,3012	0,054684
0,5888	1,3826	0,078355
0,6234	1,4641	0,088265
0,658	1,5455	0,092188
0,6927	1,627	0,10367
0,7273	1,7085	0,12486
0,7619	1,7899	0,1357
0,7966	1,8714	0,14053
0,8312	1,9528	0,15452
0,8658	2,0343	0,17502
0,9005	2,1158	0,1813
0,9351	2,1972	0,18927
0,9697	2,2787	0,20169
1,004	2,3601	0,22315
1,039	2,4416	0,23141
1,074	2,5231	0,23644
1,108	2,6045	0,24896
1,143	2,686	0,27214
1,178	2,7674	0,28102
1,212	2,8489	0,28591
1,247	2,9304	0,30042
1,281	3,0118	0,32146
1,316	3,0933	0,32441
1,351	3,1747	0,33318
1,385	3,2562	0,34284
1,42	3,3377	0,36706
1,455	3,4191	0,37603
1,489	3,5006	0,37991
1,524	3,5821	0,39684
1,559	3,6635	0,41408
1,593	3,745	0,42347
1,628	3,8264	0,43124
1,662	3,9079	0,44034
1,697	3,9894	0,45901
1,732	4,0708	0,4736
1,766	4,1523	0,48513
1,801	4,2337	0,49666
1,836	4,3152	0,50865
1,87	4,3967	0,52077
1,905	4,4781	0,5329
1,939	4,5596	0,54502
1,974	4,5747	0,55714
2,009	4,529	0,56927
2,043	4,4833	0,58139
2,078	4,4376	0,59351
2,113	4,3919	0,60564
2,147	4,3462	0,61776
2,182	4,3005	0,62988
2,217	4,2548	0,64201
2,251	4,209	0,65413
2,286	4,1633	0,66625
2,32	4,1176	0,67838
2,355	4,0719	0,6905
2,39	4,0262	0,70263
2,424	3,9805	0,71475
2,459	3,9348	0,72687
2,494	3,8891	0,739
2,528	3,8434	0,75112
2,563	3,7977	0,76324
2,598	3,752	0,77537
2,632	3,7063	0,78749
2,667	3,6606	0,79961
2,701	3,6149	0,81174
2,736	3,5692	0,82386
2,771	3,5235	0,83598
2,805	3,4778	0,84811
2,84	3,432	0,86023
2,875	3,3863	0,87236
2,909	3,3406	0,88448
2,944	3,2949	0,8966
2,979	3,2492	0,90873
3,013	3,2035	0,92085
3,048	3,1578	0,93297
3,082	3,1121	0,9451
3,117	3,0664	0,95722
3,152	3,0207	0,96934
3,186	2,975	0,98147
3,221	2,9293	0,99359
3,256	2,8836	1,0057
3,29	2,8379	1,0178
3,325	2,7922	1,03
3,359	2,7465	1,0421
3,394	2,7008	1,0542
3,429	2,655	1,0663
3,463	2,6093	1,0785
3,498	2,5636	1,0906
3,533	2,5179	1,1027
3,567	2,4722	1,1148
3,602	2,4265	1,127
3,637	2,3808	1,1391
3,671	2,3351	1,1512
3,706	2,2894	1,1633
3,74	2,2437	1,1754
3,775	2,198	1,1876
3,81	2,1523	1,1997
3,844	2,1066	1,2118
3,879	2,0609	1,2239
3,914	2,0152	1,2361
3,948	1,9695	1,2482
3,983	1,9238	1,2603
4,018	1,878	1,2724
4,052	1,8323	1,2846
4,087	1,7866	1,2967
4,121	1,7409	1,3088
4,156	1,6952	1,3209
4,191	1,6495	1,3331
4,225	1,6038	1,3452
4,26	1,5581	1,3573
4,295	1,5124	1,3694
4,329	1,4667	1,3815
4,364	1,421	1,3937
4,398	1,3753	1,4058
4,433	1,3296	1,4179
4,468	1,2839	1,43
4,502	1,2382	1,4422
4,537	1,2154	1,4543
4,572	1,2242	1,4664
4,606	1,233	1,4785
4,641	1,2417	1,4907
4,676	1,2505	1,5028
4,71	1,2593	1,5149
4,745	1,2681	1,527
4,779	1,2769	1,5392
4,814	1,2857	1,5513
4,849	1,2945	1,5634
4,883	1,3033	1,5755
4,918	1,3121	1,5876
4,953	1,3208	1,5998
4,987	1,3296	1,6119
5,022	1,3384	1,624
5,057	1,3472	1,6361
5,091	1,356	1,6483
5,126	1,3648	1,6604
5,16	1,3736	1,6725
5,195	1,3824	1,6846
5,23	1,3912	1,6968
5,264	1,4	1,7089
5,299	1,4087	1,721
5,334	1,4175	1,7331
5,368	1,4263	1,7453
5,403	1,4351	1,7574
5,437	1,4439	1,7695
5,472	1,4527	1,7816
5,507	1,4615	1,7937
5,541	1,4703	1,8059
5,576	1,4791	1,818
5,611	1,4878	1,8301
5,645	1,4966	1,8422
5,68	1,5054	1,8544
5,715	1,5142	1,8665
5,749	1,523	1,8786
5,784	1,5318	1,8907
5,818	1,5406	1,9029
5,853	1,5494	1,915
5,888	1,5582	1,9271
5,922	1,5669	1,9392
5,957	1,5757	1,9514
5,992	1,5845	1,9635
6,026	1,5933	1,9756
6,061	1,6021	1,9877
6,096	1,6109	1,9998
6,13	1,6197	2,012
6,165	1,6285	2,0241
6,199	1,6373	2,0362
6,234	1,6461	2,0483
6,269	1,6548	2,0605
6,303	1,6636	2,0726
6,338	1,6724	2,0847
6,373	1,6812	2,0968
6,407	1,69	2,109
6,442	1,6988	2,1211
6,477	1,7076	2,1332
6,511	1,7164	2,1453
6,546	1,7252	2,1575
6,58	1,7339	2,1696
6,615	1,7402	2,1817
6,65	1,7385	2,1938
6,684	1,7369	2,2059
6,719	1,7353	2,2181
6,754	1,7337	2,2302
6,788	1,7321	2,2423
6,823	1,7305	2,2544
6,857	1,7289	2,2666
6,892	1,7273	2,2787
6,927	1,7257	2,2908
6,961	1,7241	2,3029
6,996	1,7225	2,3151
7,031	1,7208	2,3272
7,065	1,7192	2,3393
7,1	1,7176	2,3514
7,135	1,716	2,3636
7,169	1,7144	2,3757
7,204	1,7128	2,3878
7,238	1,7112	2,3999
7,273	1,7096	2,412
7,308	1,708	2,4242
7,342	1,7064	2,4363
7,377	1,7048	2,4484
7,412	1,7031	2,4605
7,446	1,7015	2,4727
7,481	1,6999	2,4848
7,516	1,6983	2,4969
7,55	1,6967	2,509
7,585	1,6951	2,5212
7,619	1,6935	2,5333
7,654	1,6919	2,5454
7,689	1,6903	2,5575
7,723	1,6887	2,5697
7,758	1,6871	2,5818
7,793	1,6854	2,5939
7,827	1,6838	2,606
7,862	1,6822	2,6181
7,896	1,6806	2,6303
7,931	1,679	2,6424
7,966	1,6774	2,6545
8	1,6758	2,6666
8,035	1,6742	2,6788
8,07	1,6726	2,6909
8,104	1,671	2,703
8,139	1,6694	2,7151
8,174	1,6677	2,7273
8,208	1,6661	2,7394
8,243	1,6645	2,7515
8,277	1,6629	2,7636
8,312	1,6613	2,7758
8,347	1,6597	2,7879
8,381	1,6581	2,8
8,416	1,6565	2,8121
8,451	1,6549	2,8242
8,485	1,6533	2,8364
8,52	1,6516	2,8485
8,555	1,65	2,8606
8,589	1,6484	2,8727
8,624	1,6468	2,8849
8,658	1,6452	2,897
8,693	1,6436	2,9091
8,728	1,642	2,9212
8,762	1,6404	2,9334
8,797	1,6388	2,9455
8,832	1,6372	2,9576
8,866	1,6356	2,9697
8,901	1,6339	2,9819
8,936	1,6323	2,994
8,97	1,6307	3,0061
9,005	1,6291	3,0182
9,039	1,6275	3,0303
9,074	1,6259	3,0425
9,109	1,6243	3,0546
9,143	1,6227	3,0667
9,178	1,6211	3,0788
9,213	1,6195	3,091
9,247	1,6179	3,1031
9,282	1,6162	3,1152
9,316	1,6146	3,1273
9,351	1,613	3,1395
9,386	1,6114	3,1516
9,42	1,6098	3,1637
9,455	1,6082	3,1758
9,49	1,6066	3,188
9,524	1,605	3,2001
9,559	1,6034	3,2122
9,594	1,6018	3,2243
9,628	1,6002	3,2364
9,663	1,5985	3,2486
9,697	1,5969	3,2607
9,732	1,5953	3,2728
9,767	1,5937	3,2849
9,801	1,5921	3,2971
9,836	1,5905	3,3092
9,871	1,5889	3,3213
9,905	1,5873	3,3334
9,94	1,5857	3,3456
9,975	1,5841	3,3577
10,01	1,5825	3,3698
10,04	1,5808	3,3819
10,08	1,5792	3,3941
10,11	1,5776	3,4062
10,15	1,576	3,4183
10,18	1,5744	3,4304
10,22	1,5728	3,4426
10,25	1,5712	3,4547
10,29	1,5696	3,4668
10,32	1,568	3,4789
10,36	1,5664	3,491
10,39	1,5648	3,5032
10,42	1,5631	3,5153
10,46	1,5615	3,5274
10,49	1,5599	3,5395
10,53	1,5583	3,5517
10,56	1,5567	3,5638
10,6	1,5551	3,5759
10,63	1,5535	3,588
10,67	1,5519	3,6002
10,7	1,5503	3,6123
10,74	1,5487	3,6244
10,77	1,5471	3,6365
10,81	1,5454	3,6487
10,84	1,5438	3,6608
10,87	1,5422	3,6729
10,91	1,5406	3,685
10,94	1,539	3,6971
10,98	1,5374	3,7093
11,01	1,5358	3,7214
11,05	1,5342	3,7335
11,08	1,5326	3,7456
11,12	1,531	3,7578
11,15	1,5293	3,7699
11,19	1,5277	3,782
11,22	1,5261	3,7941
11,26	1,5245	3,8063
11,29	1,5229	3,8184
11,33	1,5213	3,8305
11,36	1,5197	3,8426
11,39	1,5181	3,8548
11,43	1,5165	3,8669
11,46	1,5149	3,879
11,5	1,5133	3,8911
11,53	1,5116	3,9032
11,57	1,51	3,9154
11,6	1,5084	3,9275
11,64	1,5068	3,9396
11,67	1,5052	3,9517
11,71	1,5036	3,9639
11,74	1,502	3,976
11,78	1,5004	3,9881
11,81	1,4988	4,0002
11,84	1,4972	4,0124
11,88	1,4956	4,0245
11,91	1,4939	4,0366
11,95	1,4923	4,0487
11,98	1,4907	4,0609
12,02	1,4891	4,073
12,05	1,4875	4,0851
12,09	1,4859	4,0972
12,12	1,4843	4,1093
12,16	1,4827	4,1215
12,19	1,4811	4,1336
12,23	1,4795	4,1457
12,26	1,4779	4,1578
12,29	1,4762	4,17
12,33	1,4746	4,1821
12,36	1,473	4,1942
12,4	1,4714	4,2063
12,43	1,4698	4,2185
12,47	1,4682	4,2306
12,5	1,4666	4,2427
12,54	1,465	4,2548
12,57	1,4634	4,267
12,61	1,4618	4,2791
12,64	1,4602	4,2912
12,68	1,4585	4,3033
12,71	1,4569	4,3154
12,75	1,4553	4,3276
12,78	1,4537	4,3397
12,81	1,4521	4,3518
12,85	1,4505	4,3639
12,88	1,4489	4,3761
12,92	1,4473	4,3882
12,95	1,4457	4,4003
12,99	1,4441	4,4124
13,02	1,4425	4,4246
13,06	1,4408	4,4367
13,09	1,4392	4,4488
13,13	1,4376	4,4609
13,16	1,436	4,4731
13,2	1,4344	4,4852
13,23	1,4328	4,4973
13,26	1,4312	4,5094
13,3	1,4296	4,5215
13,33	1,428	4,5337
13,37	1,4264	4,5458
13,4	1,4248	4,5579
13,44	1,4231	4,57
13,47	1,4215	4,5822
13,51	1,4199	4,5943
13,54	1,4183	4,6064
13,58	1,4167	4,6185
13,61	1,4151	4,6307
13,65	1,4135	4,6428
13,68	1,4119	4,6549
13,71	1,4103	4,667
13,75	1,4087	4,6792
13,78	1,407	4,6913
13,82	1,4054	4,7034
13,85	1,4038	4,7155
13,89	1,4022	4,7276
13,92	1,4006	4,7398
13,96	1,399	4,7519
13,99	1,3974	4,764
14,03	1,3958	4,7761
14,06	1,3942	4,7883
14,1	1,3926	4,8004
14,13	1,391	4,8125
14,17	1,3893	4,8246
14,2	1,3877	4,8368
14,23	1,3861	4,8489
14,27	1,3845	4,861
14,3	1,3829	4,8731
14,34	1,3813	4,8853
14,37	1,3797	4,8974
14,41	1,3781	4,9095
14,44	1,3765	4,9216
14,48	1,3749	4,9337
14,51	1,3733	4,9459
14,55	1,3716	4,958
14,58	1,37	4,9701
14,62	1,3684	4,9822
14,65	1,3668	4,9944
14,68	1,3652	5,0065
14,72	1,3636	5,0186
14,75	1,362	5,0307
14,79	1,3604	5,0429
14,82	1,3588	5,055
14,86	1,3572	5,0671
14,89	1,3556	5,0792
14,93	1,3539	5,0914
14,96	1,3523	5,1035
15	1,3507	5,1156
15,03	1,3491	5,1277
15,07	1,3475	5,1398
15,1	1,3459	5,152
15,13	1,3443	5,1641
15,17	1,3427	5,1762
15,2	1,3411	5,1883
15,24	1,3395	5,2005
15,27	1,3379	5,2126
15,31	1,3362	5,2247
15,34	1,3346	5,2368
15,38	1,333	5,249
15,41	1,3314	5,2611
15,45	1,3298	5,2732
15,48	1,3282	5,2853
15,52	1,3266	5,2975
15,55	1,325	5,3096
15,59	1,3234	5,3217
15,62	1,3218	5,3338
15,65	1,3202	5,3459
15,69	1,3185	5,3581
15,72	1,3169	5,3702
15,76	1,3153	5,3823
15,79	1,3137	5,3944
15,83	1,3121	5,4066
15,86	1,3105	5,4187
15,9	1,3089	5,4308
15,93	1,3073	5,4429
15,97	1,3057	5,4551
16	1,3041	5,4672
16,04	1,3025	5,4793
16,07	1,3008	5,4914
16,1	1,2992	5,5036
16,14	1,2976	5,5157
16,17	1,296	5,5278
16,21	1,2944	5,5399
16,24	1,2928	5,5521
16,28	1,2912	5,5642
16,31	1,2896	5,5763
16,35	1,288	5,5884
16,38	1,2864	5,6005
16,42	1,2847	5,6127
16,45	1,2831	5,6248
16,49	1,2815	5,6369
16,52	1,2799	5,649
16,55	1,2783	5,6612
16,59	1,2767	5,6733
16,62	1,2751	5,6854
16,66	1,2735	5,6975
16,69	1,2719	5,7097
16,73	1,2703	5,7218
16,76	1,2687	5,7339
16,8	1,267	5,746
16,83	1,2654	5,7582
16,87	1,2638	5,7703
16,9	1,2622	5,7824
16,94	1,2606	5,7945
16,97	1,259	5,8066
17,01	1,2574	5,8188
17,04	1,2558	5,8309
17,07	1,2542	5,843
17,11	1,2526	5,8551
17,14	1,251	5,8673
17,18	1,2493	5,8794
17,21	1,2477	5,8915
17,25	1,2461	5,9036
17,28	1,2445	5,9158
17,32	1,2429	5,9279
17,35	1,2413	5,94
17,39	1,2397	5,9521
17,42	1,2381	5,9643
17,46	1,2365	5,9764
17,49	1,2349	5,9885
17,52	1,2333	6,0006
17,56	1,2316	6,0127
17,59	1,23	6,0249
17,63	1,2284	6,037
17,66	1,2268	6,0491
17,7	1,2252	6,0612
17,73	1,2236	6,0734
17,77	1,222	6,0855
17,8	1,2204	6,0976
17,84	1,2188	6,1097
17,87	1,2172	6,1219
17,91	1,2156	6,134
17,94	1,2139	6,1461
17,97	1,2123	6,1582
18,01	1,2107	6,1704
18,04	1,2091	6,1825
18,08	1,2075	6,1946
18,11	1,2059	6,2067
18,15	1,2043	6,2188
18,18	1,2027	6,231
18,22	1,2011	6,2431
18,25	1,1995	6,2552
18,29	1,1979	6,2673
18,32	1,1962	6,2795
18,36	1,1946	6,2916
18,39	1,193	6,3037
18,43	1,1914	6,3158
18,46	1,1898	6,328
18,49	1,1882	6,3401
18,53	1,1866	6,3522
18,56	1,185	6,3643
18,6	1,1834	6,3765
18,63	1,1818	6,3886
18,67	1,1802	6,4007
18,7	1,1785	6,4128
18,74	1,1769	6,4249
18,77	1,1753	6,4371
18,81	1,1737	6,4492
18,84	1,1721	6,4613
18,88	1,1705	6,4734
18,91	1,1689	6,4856
18,94	1,1673	6,4977
18,98	1,1657	6,5098
19,01	1,1641	6,5219
19,05	1,1625	6,5341
19,08	1,1608	6,5462
19,12	1,1592	6,5583
19,15	1,1576	6,5704
19,19	1,156	6,5826
19,22	1,1544	6,5947
19,26	1,1528	6,6068
19,29	1,1512	6,6189
19,33	1,1496	6,631
19,36	1,148	6,6432
19,39	1,1464	6,6553
19,43	1,1447	6,6674
19,46	1,1431	6,6795
19,5	1,1415	6,6917
19,53	1,1399	6,7038
19,57	1,1383	6,7159
19,6	1,1367	6,728
19,64	1,1351	6,7402
19,67	1,1335	6,7523
19,71	1,1319	6,7644
19,74	1,1303	6,7765
19,78	1,1287	6,7887
19,81	1,127	6,8008
19,85	1,1254	6,8129
19,88	1,1238	6,825
19,91	1,1222	6,8371
19,95	1,1206	6,8493
19,98	1,119	6,8614
20,02	1,1174	6,8735
20,05	1,1158	6,8856
20,09	1,1142	6,8978
20,12	1,1126	6,9099
20,16	1,111	6,922
20,19	1,1093	6,9341
20,23	1,1077	6,9463
20,26	1,1061	6,9584
20,3	1,1045	6,9705
20,33	1,1029	6,9826
20,36	1,1013	6,9948
20,4	1,0997	7,0069
20,43	1,0981	7,019
20,47	1,0965	7,0311
20,5	1,0949	7,0432
20,54	1,0933	7,0554
20,57	1,0916	7,0675
20,61	1,09	7,0796
20,64	1,0884	7,0917
20,68	1,0868	7,1039
20,71	1,0852	7,116
20,75	1,0836	7,1281
20,78	1,082	7,1402
20,81	1,0804	7,1524
20,85	1,0788	7,1645
20,88	1,0772	7,1766
20,92	1,0756	7,1887
20,95	1,0739	7,2009
20,99	1,0723	7,213
21,02	1,0707	7,2251
21,06	1,0691	7,2372
21,09	1,0675	7,2493
21,13	1,0659	7,2615
21,16	1,0643	7,2736
21,2	1,0627	7,2857
21,23	1,0611	7,2978
21,27	1,0595	7,31
21,3	1,0579	7,3221
21,33	1,0562	7,3342
21,37	1,0546	7,3463
21,4	1,053	7,3585
21,44	1,0514	7,3706
21,47	1,0498	7,3827
21,51	1,0482	7,3948
21,54	1,0466	7,407
21,58	1,045	7,4191
21,61	1,0434	7,4312
21,65	1,0418	7,4433
21,68	1,0402	7,4554
21,72	1,0385	7,4676
21,75	1,0369	7,4797
21,78	1,0353	7,4918
21,82	1,0337	7,5039
21,85	1,0321	7,5161
21,89	1,0305	7,5282
21,92	1,0289	7,5403
21,96	1,0273	7,5524
21,99	1,0257	7,5646
22,03	1,0241	7,5767
22,06	1,0224	7,5888
22,1	1,0208	7,6009
22,13	1,0192	7,6131
22,17	1,0176	7,6252
22,2	1,016	7,6373
22,23	1,0144	7,6494
22,27	1,0128	7,6615
22,3	1,0112	7,6737
22,34	1,0096	7,6858
22,37	1,008	7,6979
22,41	1,0064	7,71
22,44	1,0047	7,7222
22,48	1,0031	7,7343
22,51	1,0015	7,7464
22,55	0,99992	7,7585
22,58	0,99831	7,7707
22,62	0,9967	7,7828
22,65	0,99509	7,7949
22,69	0,99348	7,807
22,72	0,99187	7,8192
22,75	0,99026	7,8313
22,79	0,98866	7,8434
22,82	0,98705	7,8555
22,86	0,98544	7,8677
22,89	0,98383	7,8798
22,93	0,98222	7,8919
22,96	0,98061	7,904
23	0,979	7,9161
23,03	0,97739	7,9283
23,07	0,97578	7,9404
23,1	0,97417	7,9525
23,14	0,97256	7,9646
23,17	0,97095	7,9768
23,2	0,96934	7,9889
23,24	0,96774	8,001
23,27	0,96613	8,0131
23,31	0,96452	8,0253
23,34	0,96291	8,0374
23,38	0,9613	8,0495
23,41	0,95969	8,0616
23,45	0,95808	8,0738
23,48	0,95647	8,0859
23,52	0,95486	8,098
23,55	0,95325	8,1101
23,59	0,95164	8,1222
23,62	0,95003	8,1344
23,65	0,94843	8,1465
23,69	0,94682	8,1586
23,72	0,94521	8,1707
23,76	0,9436	8,1829
23,79	0,94199	8,195
23,83	0,94038	8,2071
23,86	0,93877	8,2192
23,9	0,93716	8,2314
23,93	0,93555	8,2435
23,97	0,93394	8,2556
24	0,93233	8,2677
24,04	0,93072	8,2799
24,07	0,92911	8,292
24,11	0,92751	8,3041
24,14	0,9259	8,3162
24,17	0,92429	8,3283
24,21	0,92268	8,3405
24,24	0,92107	8,3526
24,28	0,91946	8,3647
24,31	0,91785	8,3768
24,35	0,91624	8,389
24,38	0,91463	8,4011
24,42	0,91302	8,4132
24,45	0,91141	8,4253
24,49	0,9098	8,4375
24,52	0,9082	8,4496
24,56	0,90659	8,4617
24,59	0,90498	8,4738
24,62	0,90337	8,486
24,66	0,90176	8,4981
24,69	0,90015	8,5102
24,73	0,89854	8,5223
24,76	0,89693	8,5344
24,8	0,89532	8,5466
24,83	0,89371	8,5587
24,87	0,8921	8,5708
24,9	0,89049	8,5829
24,94	0,88888	8,5951
24,97	0,88728	8,6072
25,01	0,88567	8,6193
25,04	0,88406	8,6314
25,07	0,88245	8,6436
25,11	0,88084	8,6557
25,14	0,87923	8,6678
25,18	0,87762	8,6799
25,21	0,87601	8,6921
25,25	0,8744	8,7042
25,28	0,87279	8,7163
25,32	0,87118	8,7284
25,35	0,86957	8,7405
25,39	0,86796	8,7527
25,42	0,86636	8,7648
25,46	0,86475	8,7769
25,49	0,86314	8,789
25,53	0,86153	8,8012
25,56	0,85992	8,8133
25,59	0,85831	8,8254
25,63	0,8567	8,8375
25,66	0,85509	8,8497
25,7	0,85348	8,8618
25,73	0,85187	8,8739
25,77	0,85026	8,886
25,8	0,84865	8,8982
25,84	0,84705	8,9103
25,87	0,84544	8,9224
25,91	0,84383	8,9345
25,94	0,84222	8,9466
25,98	0,84061	8,9588
26,01	0,839	8,9709
26,04	0,83739	8,983
26,08	0,83578	8,9951
26,11	0,83417	9,0073
26,15	0,83256	9,0194
26,18	0,83095	9,0315
26,22	0,82934	9,0436
26,25	0,82773	9,0558
26,29	0,82613	9,0679
26,32	0,82452	9,08
26,36	0,82291	9,0921
26,39	0,8213	9,1043
26,43	0,81969	9,1164
26,46	0,81808	9,1285
26,49	0,81647	9,1406
26,53	0,81486	9,1527
26,56	0,81325	9,1649
26,6	0,81164	9,177
26,63	0,81003	9,1891
26,67	0,80842	9,2012
26,7	0,80681	9,2134
26,74	0,80521	9,2255
26,77	0,8036	9,2376
26,81	0,80199	9,2497
26,84	0,80038	9,2619
26,88	0,79877	9,274
26,91	0,79716	9,2861
26,95	0,79555	9,2982
26,98	0,79394	9,3104
27,01	0,79233	9,3225
27,05	0,79072	9,3346
27,08	0,78911	9,3467
27,12	0,7875	9,3588
27,15	0,7859	9,371
27,19	0,78429	9,3831
27,22	0,78268	9,3952
27,26	0,78107	9,4073
27,29	0,77946	9,4195
27,33	0,77785	9,4316
27,36	0,77624	9,4437
27,4	0,77463	9,4558
27,43	0,77302	9,468
27,46	0,77141	9,4801
27,5	0,7698	9,4922
27,53	0,76819	9,5043
27,57	0,76658	9,5165
27,6	0,76498	9,5286
27,64	0,76337	9,5407
27,67	0,76176	9,5528
27,71	0,76015	9,5649
27,74	0,75854	9,5771
27,78	0,75693	9,5892
27,81	0,75532	9,6013
27,85	0,75371	9,6134
27,88	0,7521	9,6256
27,91	0,75049	9,6377
27,95	0,74888	9,6498
27,98	0,74727	9,6619
28,02	0,74566	9,6741
28,05	0,74406	9,6862
28,09	0,74245	9,6983
28,12	0,74084	9,7104
28,16	0,73923	9,7226
28,19	0,73762	9,7347
28,23	0,73601	9,7468
28,26	0,7344	9,7589
28,3	0,73279	9,771
28,33	0,73118	9,7832
28,37	0,72957	9,7953
28,4	0,72796	9,8074
28,43	0,72635	9,8195
28,47	0,72475	9,8317
28,5	0,72314	9,8438
28,54	0,72153	9,8559
28,57	0,71992	9,868
28,61	0,71831	9,8802
28,64	0,7167	9,8923
28,68	0,71509	9,9044
28,71	0,71348	9,9165
28,75	0,71187	9,9287
28,78	0,71026	9,9408
28,82	0,70865	9,9529
28,85	0,70704	9,965
28,88	0,70543	9,9772
28,92	0,70383	9,9893
28,95	0,70222	10,001
28,99	0,70061	10,014
29,02	0,699	10,026
29,06	0,69739	10,038
29,09	0,69578	10,05
29,13	0,69417	10,062
29,16	0,69256	10,074
29,2	0,69095	10,086
29,23	0,68934	10,098
29,27	0,68773	10,111
29,3	0,68612	10,123
29,33	0,68451	10,135
29,37	0,68291	10,147
29,4	0,6813	10,159
29,44	0,67969	10,171
29,47	0,67808	10,183
29,51	0,67647	10,195
29,54	0,67486	10,208
29,58	0,67325	10,22
29,61	0,67164	10,232
29,65	0,67003	10,244
29,68	0,66842	10,256
29,72	0,66681	10,268
29,75	0,6652	10,28
29,79	0,6636	10,293
29,82	0,66199	10,305
29,85	0,66038	10,317
29,89	0,65877	10,329
29,92	0,65716	10,341
29,96	0,65555	10,353
29,99	0,65394	10,365
30,03	0,65233	10,378
30,06	0,65072	10,39
30,1	0,64911	10,402
30,13	0,6475	10,414
30,17	0,64589	10,426
30,2	0,64428	10,438
30,24	0,64268	10,45
30,27	0,64107	10,463
30,3	0,63946	10,475
30,34	0,63785	10,487
30,37	0,63624	10,499
30,41	0,63463	10,511
30,44	0,63302	10,523
30,48	0,63141	10,536
30,51	0,6298	10,548
30,55	0,62819	10,56
30,58	0,62658	10,572
30,62	0,62497	10,584
30,65	0,62337	10,596
30,69	0,62176	10,608
30,72	0,62015	10,621
30,75	0,61854	10,633
30,79	0,61693	10,645
30,82	0,61532	10,657
30,86	0,61371	10,669
30,89	0,6121	10,681
30,93	0,61049	10,693
30,96	0,60888	10,706
31	0,60727	10,718
31,03	0,60566	10,73
31,07	0,60405	10,742
31,1	0,60245	10,754
31,14	0,60084	10,766
31,17	0,59923	10,778
31,21	0,59762	10,791
31,24	0,59601	10,803
31,27	0,5944	10,815
31,31	0,59279	10,827
31,34	0,59118	10,839
31,38	0,58957	10,851
31,41	0,58796	10,863
31,45	0,58635	10,876
31,48	0,58474	10,888
31,52	0,58313	10,9
31,55	0,58153	10,912
31,59	0,57992	10,924
31,62	0,57831	10,936
31,66	0,5767	10,948
31,69	0,57509	10,961
31,72	0,57348	10,973
31,76	0,57187	10,985
31,79	0,57026	10,997
31,83	0,56865	11,009
31,86	0,56704	11,021
31,9	0,56543	11,033
31,93	0,56382	11,046
31,97	0,56222	11,058
32	0,56061	11,07
32,04	0,559	11,082
32,07	0,55739	11,094
32,11	0,55578	11,106
32,14	0,55417	11,118
32,17	0,55256	11,131
32,21	0,55095	11,143
32,24	0,54934	11,155
32,28	0,54773	11,167
32,31	0,54612	11,179
32,35	0,54451	11,191
32,38	0,5429	11,204
32,42	0,5413	11,216
32,45	0,53969	11,228
32,49	0,53808	11,24
32,52	0,53647	11,252
32,56	0,53486	11,264
32,59	0,53325	11,276
32,62	0,53164	11,289
32,66	0,53003	11,301
32,69	0,52842	11,313
32,73	0,52681	11,325
32,76	0,5252	11,337
32,8	0,52359	11,349
32,83	0,52198	11,361
32,87	0,52038	11,374
32,9	0,51877	11,386
32,94	0,51716	11,398
32,97	0,51555	11,41
33,01	0,51394	11,422
33,04	0,51233	11,434
33,08	0,51072	11,446
33,11	0,50911	11,459
33,14	0,5075	11,471
33,18	0,50589	11,483
33,21	0,50428	11,495
33,25	0,50267	11,507
33,28	0,50107	11,519
33,32	0,49946	11,531
33,35	0,49785	11,544
33,39	0,49624	11,556
33,42	0,49463	11,568
33,46	0,49302	11,58
33,49	0,49141	11,592
33,53	0,4898	11,604
33,56	0,48819	11,616
33,59	0,48658	11,629
33,63	0,48497	11,641
33,66	0,48336	11,653
33,7	0,48175	11,665
33,73	0,48015	11,677
33,77	0,47854	11,689
33,8	0,47693	11,701
33,84	0,47532	11,714
33,87	0,47371	11,726
33,91	0,4721	11,738
33,94	0,47049	11,75
33,98	0,46888	11,762
34,01	0,46727	11,774
34,04	0,46566	11,786
34,08	0,46405	11,799
34,11	0,46244	11,811
34,15	0,46083	11,823
34,18	0,45923	11,835
34,22	0,45762	11,847
34,25	0,45601	11,859
34,29	0,4544	11,872
34,32	0,45279	11,884
34,36	0,45118	11,896
34,39	0,44957	11,908
34,43	0,44796	11,92
34,46	0,44635	11,932
34,5	0,44474	11,944
34,53	0,44313	11,957
34,56	0,44152	11,969
34,6	0,43992	11,981
34,63	0,43831	11,993
34,67	0,4367	12,005
34,7	0,43509	12,017
34,74	0,43348	12,029
34,77	0,43187	12,042
34,81	0,43026	12,054
34,84	0,42865	12,066
34,88	0,42704	12,078
34,91	0,42543	12,09
34,95	0,42382	12,102
34,98	0,42221	12,114
35,01	0,4206	12,127
35,05	0,419	12,139
35,08	0,41739	12,151
35,12	0,41578	12,163
35,15	0,41417	12,175
35,19	0,41256	12,187
35,22	0,41095	12,199
35,26	0,40934	12,212
35,29	0,40773	12,224
35,33	0,40612	12,236
35,36	0,40451	12,248
35,4	0,4029	12,26
35,43	0,40129	12,272
35,46	0,39968	12,284
35,5	0,39808	12,297
35,53	0,39647	12,309
35,57	0,39486	12,321
35,6	0,39325	12,333
35,64	0,39164	12,345
35,67	0,39003	12,357
35,71	0,38842	12,369
35,74	0,38681	12,382
35,78	0,3852	12,394
35,81	0,38359	12,406
35,85	0,38198	12,418
35,88	0,38037	12,43
35,92	0,37877	12,442
35,95	0,37716	12,455
35,98	0,37555	12,467
36,02	0,37394	12,479
36,05	0,37233	12,491
36,09	0,37072	12,503
36,12	0,36911	12,516
36,16	0,3675	12,528
36,19	0,36589	12,54
36,23	0,36428	12,552
36,26	0,36267	12,565
36,3	0,36106	12,577
36,33	0,35945	12,589
36,37	0,35785	12,601
36,4	0,35624	12,613
36,43	0,35463	12,626
36,47	0,35302	12,638
36,5	0,35141	12,65
36,54	0,3498	12,662
36,57	0,34819	12,675
36,61	0,34658	12,687
36,64	0,34497	12,699
36,68	0,34336	12,711
36,71	0,34175	12,723
36,75	0,34014	12,736
36,78	0,33854	12,748
36,82	0,33693	12,76
36,85	0,33532	12,772
36,88	0,33371	12,785
36,92	0,3321	12,797
36,95	0,33049	12,809
36,99	0,32888	12,821
37,02	0,32727	12,834
37,06	0,32566	12,846
37,09	0,32405	12,858
37,13	0,32244	12,87
37,16	0,32083	12,882
37,2	0,31922	12,895
37,23	0,31762	12,907
37,27	0,31601	12,919
37,3	0,3144	12,931
37,34	0,31279	12,944
37,37	0,31118	12,956
37,4	0,30957	12,968
37,44	0,30796	12,98
37,47	0,30635	12,992
37,51	0,30474	13,005
37,54	0,30313	13,017
37,58	0,30152	13,029
37,61	0,29991	13,041
37,65	0,2983	13,053
37,68	0,2967	13,065
37,72	0,29509	13,078
37,75	0,29348	13,09
37,79	0,29187	13,102
37,82	0,29026	13,114
37,85	0,28865	13,126
37,89	0,28704	13,138
37,92	0,28543	13,15
37,96	0,28382	13,162
37,99	0,28221	13,175
38,03	0,2806	13,187
38,06	0,27899	13,199
38,1	0,27739	13,211
38,13	0,27578	13,223
38,17	0,27417	13,235
38,2	0,27256	13,247
38,24	0,27095	13,259
38,27	0,26934	13,272
38,3	0,26773	13,284
38,34	0,26612	13,296
38,37	0,26451	13,308
38,41	0,2629	13,32
38,44	0,26129	13,332
38,48	0,25968	13,344
38,51	0,25807	13,356
38,55	0,25647	13,369
38,58	0,25486	13,381
38,62	0,25325	13,393
38,65	0,25164	13,405
38,69	0,25003	13,417
38,72	0,24842	13,429
38,76	0,24681	13,441
38,79	0,2452	13,453
38,82	0,24359	13,466
38,86	0,24198	13,478
38,89	0,24037	13,49
38,93	0,23876	13,502
38,96	0,23715	13,514
39	0,23555	13,526
39,03	0,23394	13,538
39,07	0,23233	13,55
39,1	0,23072	13,563
39,14	0,22911	13,575
39,17	0,2275	13,587
39,21	0,22589	13,599
39,24	0,22428	13,611
39,27	0,22267	13,623
39,31	0,22106	13,635
39,34	0,21945	13,647
39,38	0,21784	13,66
39,41	0,21624	13,672
39,45	0,21463	13,684
39,48	0,21302	13,696
39,52	0,21141	13,708
39,55	0,2098	13,72
39,59	0,20819	13,732
39,62	0,20658	13,744
39,66	0,20497	13,757
39,69	0,20336	13,769
39,72	0,20175	13,781
39,76	0,20014	13,793
39,79	0,19853	13,805
39,83	0,19692	13,817
39,86	0,19532	13,829
39,9	0,19371	13,841
39,93	0,1921	13,854
39,97	0,19049	13,866
40	0,18888	13,878
40,04	0,18727	13,89
40,07	0,18566	13,902
40,11	0,18405	13,914
40,14	0,18244	13,926
40,18	0,18083	13,938
40,21	0,17922	13,951
40,24	0,17761	13,963
40,28	0,176	13,975
40,31	0,1744	13,987
40,35	0,17279	13,999
40,38	0,17118	14,011
40,42	0,16957	14,023
40,45	0,16796	14,035
40,49	0,16635	14,048
40,52	0,16474	14,06
40,56	0,16313	14,072
40,59	0,16152	14,084
40,63	0,15991	14,096
40,66	0,1583	14,108
40,69	0,15669	14,12
40,73	0,15509	14,132
40,76	0,15348	14,145
40,8	0,15187	14,157
40,83	0,15026	14,169
40,87	0,14865	14,181
40,9	0,14704	14,193
40,94	0,14543	14,205
40,97	0,14382	14,217
41,01	0,14221	14,229
41,04	0,1406	14,242
41,08	0,13899	14,254
41,11	0,13738	14,266
41,14	0,13577	14,278
41,18	0,13417	14,29
41,21	0,13256	14,302
41,25	0,13095	14,314
41,28	0,12934	14,326
41,32	0,12773	14,339
41,35	0,12612	14,351
41,39	0,12451	14,363
41,42	0,1229	14,375
41,46	0,12129	14,387
41,49	0,11968	14,399
41,53	0,11807	14,411
41,56	0,11646	14,423
41,6	0,11486	14,436
41,63	0,11325	14,448
41,66	0,11164	14,46
41,7	0,11003	14,472
41,73	0,10842	14,484
41,77	0,10681	14,496
41,8	0,1052	14,508
41,84	0,10359	14,52
41,87	0,10198	14,533
41,91	0,10037	14,545
41,94	0,098763	14,557
41,98	0,097154	14,569
42,01	0,095545	14,581
42,05	0,093935	14,593
42,08	0,092326	14,605
42,11	0,090717	14,617
42,15	0,089108	14,63
42,18	0,087498	14,642
42,22	0,085889	14,654
42,25	0,08428	14,666
42,29	0,082671	14,678
42,32	0,081062	14,69
42,36	0,079452	14,702
42,39	0,077843	14,714
42,43	0,076234	14,727
42,46	0,074625	14,739
42,5	0,073016	14,751
42,53	0,071406	14,763
42,56	0,069797	14,775
42,6	0,068188	14,787
42,63	0,066579	14,799
42,67	0,06497	14,811
42,7	0,06336	14,824
42,74	0,061751	14,836
42,77	0,060142	14,848
42,81	0,058533	14,86
42,84	0,056923	14,872
42,88	0,055314	14,884
42,91	0,053705	14,896
42,95	0,052096	14,908
42,98	0,050487	14,921
43,02	0,048877	14,933
43,05	0,047268	14,945
43,08	0,045659	14,957
43,12	0,04405	14,969
43,15	0,042441	14,981
43,19	0,040831	14,993
43,22	0,039222	15,005
43,26	0,037613	15,018
43,29	0,036004	15,03
43,33	0,034395	15,042
43,36	0,032785	15,054
43,4	0,031176	15,066
43,43	0,029567	15,078
43,47	0,027958	15,09
43,5	0,026349	15,102
43,53	0,024739	15,115
43,57	0,02313	15,127
43,6	0,021521	15,139
43,64	0,019912	15,151
43,67	0,018302	15,163
43,71	0,016693	15,175
43,74	0,015084	15,187
43,78	0,013475	15,199
43,81	0,011866	15,212
43,85	0,010256	15,224
43,88	0,0086472	15,236
43,92	0,007038	15,248
43,95	0,0054288	15,26
43,98	0,0038196	15,272
44,02	0,0022104	15,284
44,05	0,00060117	15,296
44,09	-0,001008	15,309
44,12	-0,0026172	15,321
44,16	-0,0042265	15,333
44,19	-0,0058357	15,345
44,23	-0,0074449	15,357
44,26	-0,0090541	15,369
44,3	-0,010663	15,381
44,33	-0,012272	15,393
44,37	-0,013882	15,406
44,4	-0,015491	15,418
44,44	-0,0171	15,43
44,47	-0,018709	15,442
44,5	-0,020319	15,454
44,54	-0,021928	15,466
44,57	-0,023537	15,478
44,61	-0,025146	15,49
44,64	-0,026755	15,503
44,68	-0,028365	15,515
44,71	-0,029974	15,527
44,75	-0,031583	15,539
44,78	-0,033192	15,551
44,82	-0,034801	15,563
44,85	-0,036411	15,575
44,89	-0,03802	15,587
44,92	-0,039629	15,6
44,95	-0,041238	15,612
44,99	-0,042847	15,624
45,02	-0,044457	15,636
45,06	-0,046066	15,648
45,09	-0,047675	15,66
45,13	-0,049284	15,672
45,16	-0,050894	15,684
45,2	-0,052503	15,697
45,23	-0,054112	15,709
45,27	-0,055721	15,721
45,3	-0,05733	15,733
45,34	-0,05894	15,745
45,37	-0,060549	15,757
45,4	-0,062158	15,769
45,44	-0,063767	15,781
45,47	-0,065376	15,794
45,51	-0,066986	15,806
45,54	-0,068595	15,818
45,58	-0,070204	15,83
45,61	-0,071813	15,842
45,65	-0,073422	15,854
45,68	-0,075032	15,866
45,72	-0,076641	15,878
45,75	-0,07825	15,891
45,79	-0,079859	15,903
45,82	-0,081468	15,915
45,86	-0,083078	15,927
45,89	-0,084687	15,939
45,92	-0,086296	15,951
45,96	-0,087905	15,963
45,99	-0,089515	15,975
46,03	-0,091124	15,988
46,06	-0,092733	16
46,1	-0,094342	16,012
46,13	-0,095951	16,024
46,17	-0,097561	16,036
46,2	-0,09917	16,048
46,24	-0,10078	16,06
46,27	-0,10239	16,072
46,31	-0,104	16,085
46,34	-0,10561	16,097
46,37	-0,10722	16,109
46,41	-0,10883	16,121
46,44	-0,11043	16,133
46,48	-0,11204	16,145
46,51	-0,11365	16,157
46,55	-0,11526	16,17
46,58	-0,11687	16,182
46,62	-0,11848	16,194
46,65	-0,12009	16,206
46,69	-0,1217	16,218
46,72	-0,12331	16,23
46,76	-0,12492	16,242
46,79	-0,12653	16,254
46,82	-0,12814	16,267
46,86	-0,12974	16,279
46,89	-0,13135	16,291
46,93	-0,13296	16,303
46,96	-0,13457	16,315
47	-0,13618	16,327
47,03	-0,13779	16,339
47,07	-0,1394	16,351
47,1	-0,14101	16,364
47,14	-0,14262	16,376
47,17	-0,14423	16,388
47,21	-0,14584	16,4
47,24	-0,14745	16,412
47,28	-0,14906	16,424
47,31	-0,15066	16,436
47,34	-0,15227	16,448
47,38	-0,15388	16,461
47,41	-0,15549	16,473
47,45	-0,1571	16,485
47,48	-0,15871	16,497
47,52	-0,16032	16,509
47,55	-0,16193	16,521
47,59	-0,16354	16,533
47,62	-0,16515	16,545
47,66	-0,16676	16,558
47,69	-0,16837	16,57
47,73	-0,16997	16,582
47,76	-0,17158	16,594
47,79	-0,17319	16,606
47,83	-0,1748	16,618
47,86	-0,17641	16,63
47,9	-0,17802	16,642
47,93	-0,17963	16,655
47,97	-0,18124	16,667
48	-0,18285	16,679
48,04	-0,18446	16,691
48,07	-0,18607	16,703
48,11	-0,18768	16,715
48,14	-0,18929	16,727
48,18	-0,19089	16,739
48,21	-0,1925	16,752
48,24	-0,19411	16,764
48,28	-0,19572	16,776
48,31	-0,19733	16,788
48,35	-0,19894	16,8
48,38	-0,20055	16,812
48,42	-0,20216	16,824
48,45	-0,20377	16,836
48,49	-0,20538	16,849
48,52	-0,20699	16,861
48,56	-0,2086	16,873
48,59	-0,21021	16,885
48,63	-0,21181	16,897
48,66	-0,21342	16,909
48,7	-0,21503	16,921
48,73	-0,21664	16,933
48,76	-0,21825	16,946
48,8	-0,21986	16,958
48,83	-0,22147	16,97
48,87	-0,22308	16,982
48,9	-0,22469	16,994
48,94	-0,2263	17,006
48,97	-0,22791	17,018
49,01	-0,22952	17,03
49,04	-0,23112	17,043
49,08	-0,23273	17,055
49,11	-0,23434	17,067
49,15	-0,23595	17,079
49,18	-0,23756	17,091
49,21	-0,23917	17,103
49,25	-0,24078	17,115
49,28	-0,24239	17,127
49,32	-0,244	17,14
49,35	-0,24561	17,152
49,39	-0,24722	17,164
49,42	-0,24883	17,176
49,46	-0,25044	17,188
49,49	-0,25204	17,2
49,53	-0,25365	17,212
49,56	-0,25526	17,224
49,6	-0,25687	17,237
49,63	-0,25848	17,249
49,66	-0,26009	17,261
49,7	-0,2617	17,273
49,73	-0,26331	17,285
49,77	-0,26492	17,297
49,8	-0,26653	17,309
49,84	-0,26814	17,321
49,87	-0,26975	17,334
49,91	-0,27136	17,346
49,94	-0,27296	17,358
49,98	-0,27457	17,37
50,01	-0,27618	17,382
50,05	-0,27779	17,394
50,08	-0,2794	17,406
50,12	-0,28101	17,418
50,15	-0,28262	17,431
50,18	-0,28423	17,443
50,22	-0,28584	17,455
50,25	-0,28745	17,467
50,29	-0,28906	17,479
50,32	-0,29067	17,491
50,36	-0,29227	17,503
50,39	-0,29388	17,515
50,43	-0,29549	17,528
50,46	-0,2971	17,54
50,5	-0,29871	17,552
50,53	-0,30032	17,564
50,57	-0,30193	17,576
50,6	-0,30354	17,588
50,63	-0,30515	17,6
50,67	-0,30676	17,612
50,7	-0,30837	17,625
50,74	-0,30998	17,637
50,77	-0,31159	17,649
50,81	-0,31319	17,661
50,84	-0,3148	17,673
50,88	-0,31641	17,685
50,91	-0,31802	17,697
50,95	-0,31963	17,709
50,98	-0,32124	17,722
51,02	-0,32285	17,734
51,05	-0,32446	17,746
51,08	-0,32607	17,758
51,12	-0,32768	17,77
51,15	-0,32929	17,782
51,19	-0,3309	17,794
51,22	-0,33251	17,806
51,26	-0,33411	17,819
51,29	-0,33572	17,831
51,33	-0,33733	17,843
51,36	-0,33894	17,855
51,4	-0,34055	17,867
51,43	-0,34216	17,879
51,47	-0,34377	17,891
51,5	-0,34538	17,903
51,54	-0,34699	17,916
51,57	-0,3486	17,928
51,58		17,931