File: Tests de traction/Fichiers source/04_07_2016/Sample_4_250N.txt
Time (s)	Load (N)	Machine Extension (mm)	Extension from Preload (mm)
0
0,1358	0,022408	0,000046922	-0,022263
0,2716	0,049981	0,00009488	-0,022215
0,4074	0,077554	0,00049883	-0,021811
0,5431	0,10513	0,022232	-0,000078058
0,6789	0,1327	0,020273	-0,0020373
0,8147	0,16027	0,020362	-0,0019478
0,9505	0,18785	0,022295	-0,000014866
1,086	0,21542	0,036123	0,013813
1,222	0,24299	0,036185	0,013875
1,358	0,27056	0,036247	0,013937
1,494	0,29814	0,03631	0,014
1,629	0,32571	0,036372	0,014062
1,765	0,35328	0,038677	0,016367
1,901	0,38086	0,042765	0,020455
2,037	0,40843	0,044249	0,021938
2,173	0,436	0,0466	0,02429
2,308	0,46357	0,048575	0,026265
2,444	0,49115	0,052225	0,029915
2,58	0,51872	0,054126	0,031815
2,716	0,54629	0,05587	0,03356
2,851	0,57387	0,059202	0,036892
2,987	0,60144	0,061404	0,039094
3,123	0,62901	0,062714	0,040404
3,259	0,65658	0,065893	0,043583
3,395	0,68416	0,072224	0,049913
3,53	0,71173	0,079412	0,057101
3,666	0,7393	0,079495	0,057185
3,802	0,76688	0,079578	0,057268
3,938	0,79445	0,079641	0,05733
4,074	0,82202	0,079646	0,057336
4,209	0,84959	0,079652	0,057341
4,345	0,87717	0,079657	0,057347
4,481	0,90474	0,080015	0,057705
4,617	0,93231	0,090276	0,067966
4,752	0,95989	0,091069	0,068759
4,888	0,98746	0,092229	0,069919
5,024	1,015	0,094347	0,072036
5,16	1,0426	0,096058	0,073748
5,296	1,0702	0,098965	0,076655
5,431	1,0977	0,10209	0,079781
5,567	1,1253	0,10375	0,081443
5,703	1,1529	0,10601	0,083704
5,839	1,1805	0,10895	0,086638
5,975	1,208	0,11136	0,089053
6,11	1,2356	0,11378	0,091469
6,246	1,2632	0,1167	0,094388
6,382	1,2908	0,12402	0,10171
6,518	1,3183	0,12587	0,10356
6,653	1,3459	0,1259	0,10359
6,789	1,3735	0,12594	0,10363
6,925	1,4011	0,12597	0,10366
7,061	1,4286	0,12601	0,1037
7,197	1,4562	0,13093	0,10862
7,332	1,4838	0,13435	0,11204
7,468	1,5113	0,1364	0,11409
7,604	1,5389	0,13839	0,11608
7,74	1,5665	0,13978	0,11747
7,876	1,5941	0,14231	0,12
8,011	1,6216	0,1436	0,12129
8,147	1,6492	0,14621	0,1239
8,283	1,6768	0,14958	0,12727
8,419	1,7044	0,15152	0,12921
8,554	1,7319	0,15296	0,13065
8,69	1,7595	0,15652	0,13421
8,826	1,7871	0,15909	0,13678
8,962	1,8146	0,16166	0,13935
9,098	1,8422	0,16423	0,14192
9,233	1,8698	0,16829	0,14598
9,369	1,8974	0,17599	0,15368
9,505	1,9249	0,176	0,15369
9,641	1,9525	0,17601	0,1537
9,777	1,9801	0,17603	0,15372
9,912	2,0077	0,17604	0,15373
10,05	2,0352	0,17605	0,15374
10,18	2,0628	0,17606	0,15375
10,32	2,0904	0,1824	0,16009
10,46	2,1179	0,18652	0,16421
10,59	2,1455	0,18785	0,16554
10,73	2,1731	0,18924	0,16693
10,86	2,2007	0,19132	0,16901
11	2,2282	0,1936	0,17129
11,13	2,2558	0,19725	0,17494
11,27	2,2834	0,19913	0,17682
11,41	2,311	0,20036	0,17805
11,54	2,3385	0,20456	0,18225
11,68	2,3661	0,20698	0,18467
11,81	2,3937	0,2094	0,18709
11,95	2,4212	0,21182	0,18951
12,08	2,4488	0,21424	0,19193
12,22	2,4764	0,22409	0,20178
12,36	2,504	0,22471	0,2024
12,49	2,5315	0,22473	0,20242
12,63	2,5591	0,22474	0,20243
12,76	2,5867	0,22476	0,20245
12,9	2,6143	0,22478	0,20247
13,04	2,6418	0,2244	0,20209
13,17	2,6694	0,22923	0,20692
13,31	2,697	0,23462	0,21231
13,44	2,7245	0,23499	0,21268
13,58	2,7521	0,23691	0,21459
13,71	2,7797	0,2391	0,21679
13,85	2,8073	0,2416	0,21929
13,99	2,8348	0,24502	0,22271
14,12	2,8624	0,24685	0,22454
14,26	2,89	0,24776	0,22545
14,39	2,9176	0,25121	0,2289
14,53	2,9451	0,25373	0,23142
14,66	2,9727	0,25624	0,23393
14,8	3,0003	0,25876	0,23645
14,94	3,0279	0,26128	0,23896
15,07	3,0554	0,2677	0,24539
15,21	3,083	0,27151	0,2492
15,34	3,1106	0,27156	0,24925
15,48	3,1381	0,27161	0,2493
15,62	3,1657	0,27167	0,24936
15,75	3,1933	0,27172	0,24941
15,89	3,2209	0,27177	0,24946
16,02	3,2484	0,28042	0,25811
16,16	3,276	0,28148	0,25917
16,29	3,3036	0,28244	0,26013
16,43	3,3312	0,28452	0,26221
16,57	3,3587	0,28637	0,26406
16,7	3,3863	0,28858	0,26627
16,84	3,4139	0,29089	0,26858
16,97	3,4414	0,2944	0,27209
17,11	3,469	0,29661	0,2743
17,24	3,4966	0,29881	0,2765
17,38	3,5242	0,30102	0,27871
17,52	3,5517	0,30322	0,28091
17,65	3,5793	0,30543	0,28312
17,79	3,6069	0,31257	0,29026
17,92	3,6345	0,3158	0,29349
18,06	3,662	0,31594	0,29363
18,2	3,6896	0,31608	0,29377
18,33	3,7172	0,31622	0,29391
18,47	3,7447	0,31646	0,29415
18,6	3,7723	0,32113	0,29882
18,74	3,7999	0,32364	0,30133
18,87	3,8275	0,32585	0,30354
19,01	3,855	0,33057	0,30826
19,15	3,8826	0,33099	0,30868
19,28	3,9102	0,33127	0,30896
19,42	3,9378	0,33424	0,31193
19,55	3,9653	0,33569	0,31338
19,69	3,9929	0,33864	0,31633
19,82	4,0205	0,34132	0,31901
19,96	4,048	0,34417	0,32186
20,1	4,0756	0,34585	0,32354
20,23	4,1032	0,34753	0,32522
20,37	4,1308	0,35081	0,3285
20,5	4,1583	0,35377	0,33146
20,64	4,1859	0,35659	0,33428
20,78	4,2135	0,36884	0,34653
20,91	4,2411	0,36874	0,34643
21,05	4,2686	0,36865	0,34634
21,18	4,2962	0,36856	0,34625
21,32	4,3238	0,36846	0,34615
21,45	4,3513	0,36837	0,34606
21,59	4,3789	0,36827	0,34596
21,73	4,4065	0,36815	0,34584
21,86	4,4341	0,36919	0,34688
22	4,4616	0,37899	0,35668
22,13	4,4892	0,37929	0,35698
22,27	4,5168	0,38202	0,35971
22,4	4,5444	0,38298	0,36067
22,54	4,5719	0,3872	0,36489
22,68	4,5995	0,38988	0,36757
22,81	4,6271	0,39108	0,36877
22,95	4,6546	0,39345	0,37114
23,08	4,6822	0,39641	0,37409
23,22	4,7098	0,39886	0,37655
23,36	4,7374	0,40132	0,379
23,49	4,7649	0,40412	0,38181
23,63	4,7925	0,40933	0,38702
23,76	4,8201	0,41319	0,39088
23,9	4,8477	0,41324	0,39093
24,03	4,8752	0,41328	0,39097
24,17	4,9028	0,41332	0,39101
24,31	4,9304	0,41359	0,39128
24,44	4,958	0,41854	0,39623
24,58	4,9855	0,42384	0,40153
24,71	5,0131	0,42441	0,4021
24,85	5,0407	0,42567	0,40336
24,98	5,0682	0,4266	0,40429
25,12	5,0958	0,42884	0,40653
25,26	5,1234	0,43079	0,40848
25,39	5,151	0,43379	0,41148
25,53	5,1785	0,43757	0,41526
25,66	5,2061	0,43954	0,41723
25,8	5,2337	0,44151	0,4192
25,94	5,2613	0,44348	0,42117
26,07	5,2888	0,4453	0,42299
26,21	5,3164	0,45017	0,42786
26,34	5,344	0,45462	0,43231
26,48	5,3715	0,4556	0,43329
26,61	5,3991	0,45613	0,43382
26,75	5,4267	0,45667	0,43436
26,89	5,4543	0,46459	0,44228
27,02	5,4818	0,46482	0,44251
27,16	5,5094	0,46506	0,44275
27,29	5,537	0,46529	0,44298
27,43	5,5646	0,46584	0,44352
27,56	5,5921	0,47249	0,45018
27,7	5,6197	0,47326	0,45095
27,84	5,6473	0,47443	0,45212
27,97	5,6748	0,47628	0,45397
28,11	5,7024	0,47856	0,45625
28,24	5,73	0,48145	0,45914
28,38	5,7576	0,48514	0,46283
28,51	5,7851	0,48719	0,46488
28,65	5,8127	0,48924	0,46693
28,79	5,8403	0,49129	0,46898
28,92	5,8679	0,49334	0,47103
29,06	5,8954	0,49539	0,47308
29,19	5,923	0,50511	0,4828
29,33	5,9506	0,50911	0,4868
29,47	5,9781	0,50914	0,48683
29,6	6,0057	0,50917	0,48686
29,74	6,018	0,5092	0,48689
29,87	6,0223	0,50923	0,48692
30,01	6,0267	0,50926	0,48695
30,14	6,0311	0,50929	0,48698
30,28	6,0354	0,5097	0,48739
30,42	6,0398	0,51911	0,4968
30,55	6,0442	0,51958	0,49727
30,69	6,0485	0,52206	0,49975
30,82	6,0529	0,5235	0,50119
30,96	6,0573	0,52597	0,50366
31,09	6,0616	0,53007	0,50776
31,23	6,066	0,53229	0,50998
31,37	6,0704	0,53456	0,51225
31,5	6,0747	0,53603	0,51372
31,64	6,0791	0,53744	0,51513
31,77	6,0835	0,54094	0,51863
31,91	6,0878	0,54441	0,5221
32,05	6,0922	0,54929	0,52698
32,18	6,0966	0,55057	0,52826
32,32	6,1009	0,55154	0,52923
32,45	6,1053	0,55204	0,52973
32,59	6,1097	0,55732	0,53501
32,72	6,114	0,55874	0,53643
32,86	6,1184	0,56017	0,53786
33	6,1228	0,56349	0,54118
33,13	6,1271	0,56533	0,54302
33,27	6,1315	0,56644	0,54413
33,4	6,1359	0,56756	0,54525
33,54	6,1402	0,56913	0,54681
33,67	6,1446	0,57086	0,54855
33,81	6,1489	0,57277	0,55046
33,95	6,1533	0,57752	0,55521
34,08	6,1577	0,57971	0,5574
34,22	6,162	0,5819	0,55959
34,35	6,1664	0,5841	0,56179
34,49	6,1708	0,58629	0,56398
34,63	6,1751	0,58849	0,56618
34,76	6,1795	0,59068	0,56837
34,9	6,1839	0,5959	0,57359
35,03	6,1882	0,59765	0,57534
35,17	6,1926	0,59806	0,57575
35,3	6,197	0,6049	0,58259
35,44	6,2013	0,60608	0,58377
35,58	6,2057	0,60611	0,5838
35,71	6,2101	0,60614	0,58383
35,85	6,2144	0,60659	0,58428
35,98	6,2188	0,61141	0,5891
36,12	6,2232	0,61439	0,59208
36,25	6,2275	0,61481	0,5925
36,39	6,2319	0,61689	0,59458
36,53	6,2363	0,6182	0,59589
36,66	6,2406	0,62148	0,59917
36,8	6,245	0,62399	0,60168
36,93	6,2494	0,62676	0,60445
37,07	6,2537	0,62952	0,6072
37,21	6,2581	0,631	0,60869
37,34	6,2625	0,63282	0,61051
37,48	6,2668	0,63611	0,6138
37,61	6,2712	0,6394	0,61709
37,75	6,2755	0,64464	0,62233
37,88	6,2799	0,6496	0,62729
38,02	6,2843	0,64968	0,62737
38,16	6,2886	0,64975	0,62744
38,29	6,293	0,64983	0,62752
38,43	6,2974	0,6499	0,62759
38,56	6,3017	0,64998	0,62767
38,7	6,3061	0,6575	0,63519
38,83	6,3105	0,66082	0,63851
38,97	6,3148	0,66085	0,63854
39,11	6,3192	0,66233	0,64002
39,24	6,3236	0,66464	0,64232
39,38	6,3279	0,66601	0,6437
39,51	6,3323	0,66923	0,64692
39,65	6,3367	0,67159	0,64928
39,79	6,341	0,67443	0,65212
39,92	6,3454	0,67754	0,65522
40,06	6,3498	0,67985	0,65754
40,19	6,3541	0,68216	0,65985
40,33	6,3585	0,68448	0,66217
40,46	6,3629	0,68679	0,66448
40,6	6,3672	0,68911	0,6668
40,74	6,3716	0,6979	0,67559
40,87	6,376	0,69899	0,67668
41,01	6,3803	0,69901	0,6767
41,14	6,3847	0,69903	0,67672
41,28	6,3891	0,69905	0,67674
41,41	6,3934	0,69907	0,67676
41,55	6,3978	0,70032	0,67801
41,69	6,4021	0,70451	0,6822
41,82	6,4065	0,71076	0,68845
41,96	6,4109	0,71098	0,68867
42,09	6,4152	0,71179	0,68948
42,23	6,4196	0,71421	0,6919
42,37	6,424	0,71633	0,69402
42,5	6,4283	0,71953	0,69722
42,64	6,4327	0,72167	0,69936
42,77	6,4371	0,7241	0,70178
42,91	6,4414	0,72745	0,70514
43,04	6,4458	0,72861	0,7063
43,18	6,4502	0,73117	0,70886
43,32	6,4545	0,73373	0,71142
43,45	6,4589	0,73628	0,71397
43,59	6,4633	0,7423	0,71999
43,72	6,4676	0,75001	0,7277
43,86	6,472	0,74978	0,72747
43,99	6,4764	0,74954	0,72723
44,13	6,4807	0,74931	0,727
44,27	6,4851	0,74907	0,72676
44,4	6,4895	0,74866	0,72635
44,54	6,4938	0,74874	0,72643
44,67	6,4982	0,7497	0,72739
44,81	6,5026	0,75896	0,73665
44,95	6,5069	0,75997	0,73766
45,08	6,5113	0,76217	0,73986
45,22	6,5156	0,76352	0,74121
45,35	6,52	0,7672	0,74489
45,49	6,5244	0,76963	0,74732
45,62	6,5287	0,77163	0,74932
45,76	6,5331	0,77362	0,75131
45,9	6,5375	0,77674	0,75442
46,03	6,5418	0,77883	0,75652
46,17	6,5462	0,7814	0,75909
46,3	6,5506	0,78397	0,76166
46,44	6,5549	0,79019	0,76788
46,57	6,5593	0,79304	0,77073
46,71	6,5637	0,79321	0,7709
46,85	6,568	0,79338	0,77107
46,98	6,5724	0,79354	0,77123
47,12	6,5768	0,79377	0,77146
47,25	6,5811	0,79837	0,77606
47,39	6,5855	0,80329	0,78098
47,52	6,5899	0,80423	0,78192
47,66	6,5942	0,80565	0,78334
47,8	6,5986	0,80672	0,78441
47,93	6,603	0,80992	0,78761
48,07	6,6073	0,81116	0,78885
48,2	6,6117	0,81485	0,79254
48,34	6,6161	0,81717	0,79486
48,48	6,6204	0,8194	0,79709
48,61	6,6248	0,82074	0,79843
48,75	6,6292	0,8236	0,80129
48,88	6,6335	0,82681	0,8045
49,02	6,6379	0,82924	0,80693
49,15	6,6422	0,83166	0,80935
49,29	6,6466	0,83754	0,81523
49,43	6,651	0,8406	0,81829
49,56	6,6553	0,84091	0,8186
49,7	6,6597	0,84123	0,81892
49,83	6,6641	0,84136	0,81905
49,97	6,6684	0,84149	0,81918
50,1	6,6728	0,84448	0,82217
50,24	6,6772	0,85219	0,82988
50,38	6,6815	0,85301	0,8307
50,51	6,6859	0,85309	0,83078
50,65	6,6903	0,85398	0,83167
50,78	6,6946	0,85686	0,83455
50,92	6,699	0,85824	0,83593
51,06	6,7034	0,86129	0,83898
51,19	6,7077	0,86422	0,84191
51,33	6,7121	0,8673	0,84499
51,46	6,7165	0,86965	0,84734
51,6	6,7208	0,872	0,84969
51,73	6,7252	0,87435	0,85204
51,87	6,7296	0,8767	0,85439
52,01	6,7339	0,87905	0,85674
52,14	6,7383	0,88203	0,85972
52,28	6,7427	0,89049	0,86818
52,41	6,747	0,89055	0,86824
52,55	6,7514	0,89061	0,8683
52,68	6,7558	0,89067	0,86836
52,82	6,7601	0,89073	0,86842
52,96	6,7645	0,89079	0,86848
53,09	6,7688	0,89262	0,87031
53,23	6,7732	0,89869	0,87638
53,36	6,7776	0,90215	0,87984
53,5	6,7819	0,90242	0,88011
53,64	6,7863	0,90474	0,88243
53,77	6,7907	0,90623	0,88392
53,91	6,795	0,90862	0,88631
54,04	6,7994	0,91125	0,88894
54,18	6,8038	0,91427	0,89196
54,31	6,8081	0,91703	0,89472
54,45	6,8125	0,91844	0,89613
54,59	6,8169	0,92032	0,89801
54,72	6,8212	0,92386	0,90155
54,86	6,8256	0,92707	0,90476
54,99	6,83	0,93475	0,91244
55,13	6,8343	0,93955	0,91724
55,26	6,8387	0,93928	0,91697
55,4	6,8431	0,93901	0,9167
55,54	6,8474	0,93874	0,91643
55,67	6,8518	0,93888	0,91657
55,81	6,8562	0,93895	0,91664
55,94	6,8605	0,93901	0,9167
56,08	6,8649	0,93971	0,9174
56,22	6,8693	0,94911	0,9268
56,35	6,8736	0,9504	0,92809
56,49	6,878	0,95248	0,93017
56,62	6,8824	0,95381	0,9315
56,76	6,8867	0,95643	0,93412
56,89	6,8911	0,96008	0,93777
57,03	6,8954	0,96164	0,93933
57,17	6,8998	0,96338	0,94107
57,3	6,9042	0,9672	0,94489
57,44	6,9085	0,96928	0,94697
57,57	6,9129	0,97175	0,94944
57,71	6,9173	0,97422	0,95191
57,84	6,9216	0,97669	0,95438
57,98	6,926	0,98618	0,96387
58,12	6,9304	0,9862	0,96389
58,25	6,9347	0,98622	0,96391
58,39	6,9391	0,98624	0,96393
58,52	6,9435	0,98626	0,96395
58,66	6,9478	0,98628	0,96397
58,8	6,9522	0,98688	0,96457
58,93	6,9566	0,99577	0,97346
59,07	6,9609	0,9959	0,97359
59,2	6,9653	0,99729	0,97498
59,34	6,9697	0,99928	0,97697
59,47	6,974	1,001	0,97865
59,61	6,9784	1,0032	0,9809
59,75	6,9828	1,0072	0,98484
59,88	6,9871	1,0102	0,98787
60,02	6,9915	1,0121	0,98976
60,15	6,9959	1,0139	0,9916
60,29	7,0002	1,0158	0,99345
60,42	7,0046	1,0182	0,9959
60,56	7,0089	1,0234	1,0011
60,7	7,0133	1,0249	1,0026
60,83	7,0177	1,0334	1,0111
60,97	7,022	1,0355	1,0132
61,1	7,0264	1,0356	1,0132
61,24	7,0308	1,0356	1,0133
61,38	7,0351	1,0356	1,0133
61,51	7,0395	1,0356	1,0133
61,65	7,0439	1,0357	1,0134
61,78	7,0482	1,0357	1,0134
61,92	7,0526	1,0422	1,0199
62,05	7,057	1,0449	1,0226
62,19	7,0613	1,047	1,0247
62,33	7,0657	1,0486	1,0263
62,46	7,0701	1,0519	1,0296
62,6	7,0744	1,0542	1,0319
62,73	7,0788	1,0572	1,0349
62,87	7,0832	1,0597	1,0374
63	7,0875	1,062	1,0397
63,14	7,0919	1,0643	1,042
63,28	7,0963	1,0667	1,0444
63,41	7,1006	1,0692	1,0468
63,55	7,105	1,0713	1,049
63,68	7,1094	1,0804	1,0581
63,82	7,1137	1,0805	1,0581
63,95	7,1181	1,0805	1,0582
64,09	7,1225	1,0805	1,0582
64,23	7,1268	1,0805	1,0582
64,36	7,1312	1,0805	1,0582
64,5	7,1355	1,0884	1,0661
64,63	7,1399	1,0894	1,067
64,77	7,1443	1,0903	1,068
64,91	7,1486	1,0924	1,0701
65,04	7,153	1,0937	1,0714
65,18	7,1574	1,0962	1,0739
65,31	7,1617	1,1007	1,0784
65,45	7,1661	1,1035	1,0811
65,58	7,1705	1,1043	1,082
65,72	7,1748	1,1063	1,084
65,86	7,1792	1,1085	1,0862
65,99	7,1836	1,1103	1,088
66,13	7,1879	1,114	1,0917
66,26	7,1923	1,1181	1,0958
66,4	7,1967	1,1218	1,0995
66,53	7,201	1,1272	1,1049
66,67	7,2054	1,1275	1,1052
66,81	7,2098	1,1275	1,1052
66,94	7,2141	1,1276	1,1052
67,08	7,2185	1,1276	1,1053
67,21	7,2229	1,1284	1,1061
67,35	7,2272	1,1369	1,1146
67,49	7,2316	1,1373	1,115
67,62	7,236	1,1377	1,1154
67,76	7,2403	1,1401	1,1178
67,89	7,2447	1,1413	1,119
68,03	7,2491	1,1439	1,1216
68,16	7,2534	1,1465	1,1242
68,3	7,2578	1,1503	1,1279
68,44	7,2621	1,1526	1,1303
68,57	7,2665	1,1549	1,1326
68,71	7,2709	1,1572	1,1349
68,84	7,2752	1,1595	1,1372
68,98	7,2796	1,1618	1,1395
69,11	7,284	1,1641	1,1418
69,25	7,2883	1,168	1,1457
69,39	7,2927	1,1753	1,153
69,52	7,2971	1,1754	1,1531
69,66	7,3014	1,1755	1,1531
69,79	7,3058	1,1755	1,1532
69,93	7,3102	1,1756	1,1533
70,07	7,3145	1,1756	1,1533
70,2	7,3189	1,1784	1,1561
70,34	7,3233	1,1855	1,1632
70,47	7,3276	1,1862	1,1639
70,61	7,332	1,1874	1,1651
70,74	7,3364	1,1892	1,1669
70,88	7,3407	1,1914	1,1691
71,02	7,3451	1,194	1,1716
71,15	7,3495	1,1971	1,1748
71,29	7,3538	1,1996	1,1773
71,42	7,3582	1,2012	1,1789
71,56	7,3626	1,203	1,1807
71,69	7,3669	1,2071	1,1848
71,83	7,3713	1,21	1,1877
71,97	7,3757	1,2129	1,1906
72,1	7,38	1,2222	1,1999
72,24	7,3844	1,2223	1,2
72,37	7,3887	1,2223	1,2
72,51	7,3931	1,2224	1,2001
72,65	7,3975	1,2225	1,2002
72,78	7,4018	1,2225	1,2002
72,92	7,4062	1,2226	1,2003
73,05	7,4106	1,2233	1,201
73,19	7,4149	1,2324	1,2101
73,32	7,4193	1,2346	1,2123
73,46	7,4237	1,235	1,2127
73,6	7,428	1,2373	1,215
73,73	7,4324	1,2386	1,2163
73,87	7,4368	1,2423	1,22
74	7,4411	1,2442	1,2219
74,14	7,4455	1,2477	1,2254
74,27	7,4499	1,2498	1,2275
74,41	7,4542	1,2521	1,2298
74,55	7,4586	1,2544	1,2321
74,68	7,463	1,2568	1,2344
74,82	7,4673	1,2591	1,2368
74,95	7,4717	1,2659	1,2436
75,09	7,4761	1,266	1,2437
75,23	7,4804	1,2662	1,2438
75,36	7,4848	1,2663	1,244
75,5	7,4892	1,272	1,2497
75,63	7,4935	1,2733	1,251
75,77	7,4979	1,2748	1,2525
75,9	7,5022	1,2764	1,2541
76,04	7,5066	1,2808	1,2585
76,18	7,511	1,2818	1,2594
76,31	7,5153	1,2822	1,2599
76,45	7,5197	1,2852	1,2629
76,58	7,5241	1,2867	1,2644
76,72	7,5284	1,2889	1,2666
76,85	7,5328	1,2918	1,2695
76,99	7,5372	1,2942	1,2719
77,13	7,5415	1,2965	1,2742
77,26	7,5459	1,299	1,2767
77,4	7,5503	1,3014	1,2791
77,53	7,5546	1,3038	1,2815
77,67	7,559	1,3063	1,284
77,81	7,5634	1,3126	1,2903
77,94	7,5677	1,3189	1,2966
78,08	7,5721	1,3189	1,2966
78,21	7,5765	1,319	1,2966
78,35	7,5808	1,319	1,2967
78,48	7,5852	1,319	1,2967
78,62	7,5896	1,319	1,2967
78,76	7,5939	1,319	1,2967
78,89	7,5983	1,3252	1,3029
79,03	7,6027	1,3294	1,307
79,16	7,607	1,3305	1,3082
79,3	7,6114	1,3317	1,3094
79,43	7,6158	1,3342	1,3119
79,57	7,6201	1,337	1,3147
79,71	7,6245	1,3403	1,318
79,84	7,6288	1,3422	1,3199
79,98	7,6332	1,3434	1,3211
80,11	7,6376	1,3469	1,3246
80,25	7,6419	1,3493	1,327
80,39	7,6463	1,3518	1,3295
80,52	7,6507	1,3543	1,332
80,66	7,655	1,3569	1,3346
80,79	7,6594	1,3645	1,3422
80,93	7,6638	1,3658	1,3435
81,06	7,6681	1,3658	1,3435
81,2	7,6725	1,3658	1,3435
81,34	7,6769	1,3657	1,3434
81,47	7,6812	1,3671	1,3448
81,61	7,6856	1,3709	1,3486
81,74	7,69	1,3768	1,3545
81,88	7,6943	1,3768	1,3545
82,01	7,6987	1,3776	1,3553
82,15	7,7031	1,3799	1,3575
82,29	7,7074	1,3819	1,3596
82,42	7,7118	1,384	1,3617
82,56	7,7162	1,3874	1,3651
82,69	7,7205	1,39	1,3677
82,83	7,7249	1,3915	1,3692
82,96	7,7293	1,393	1,3706
83,1	7,7336	1,3965	1,3742
83,24	7,738	1,3993	1,377
83,37	7,7424	1,4019	1,3796
83,51	7,7467	1,4049	1,3826
83,64	7,7511	1,4114	1,3891
83,78	7,7554	1,4115	1,3891
83,92	7,7598	1,4115	1,3892
84,05	7,7642	1,4115	1,3892
84,19	7,7685	1,4123	1,39
84,32	7,7729	1,4185	1,3962
84,46	7,7773	1,4203	1,398
84,59	7,7816	1,422	1,3997
84,73	7,786	1,4237	1,4014
84,87	7,7904	1,4254	1,4031
85	7,7947	1,4268	1,4045
85,14	7,7991	1,4298	1,4074
85,27	7,8035	1,4315	1,4092
85,41	7,8078	1,4338	1,4115
85,54	7,8122	1,4371	1,4148
85,68	7,8166	1,4396	1,4173
85,82	7,8209	1,442	1,4197
85,95	7,8253	1,4444	1,4221
86,09	7,8297	1,4468	1,4245
86,22	7,834	1,4492	1,4269
86,36	7,8384	1,4516	1,4293
86,5	7,8428	1,4561	1,4337
86,63	7,8471	1,4615	1,4392
86,77	7,8515	1,4616	1,4393
86,9	7,8559	1,4616	1,4393
87,04	7,8602	1,4617	1,4394
87,17	7,8646	1,4618	1,4395
87,31	7,869	1,4654	1,443
87,45	7,8733	1,4681	1,4458
87,58	7,8777	1,4737	1,4514
87,72	7,882	1,4739	1,4516
87,85	7,8864	1,4744	1,4521
87,99	7,8908	1,4773	1,455
88,12	7,8951	1,4786	1,4563
88,26	7,8995	1,4811	1,4588
88,4	7,9039	1,4846	1,4623
88,53	7,9082	1,4876	1,4653
88,67	7,9126	1,4894	1,4671
88,8	7,917	1,4912	1,4688
88,94	7,9213	1,4935	1,4712
89,08	7,9257	1,4967	1,4744
89,21	7,9301	1,5018	1,4795
89,35	7,9344	1,5053	1,483
89,48	7,9388	1,5054	1,4831
89,62	7,9432	1,5054	1,4831
89,75	7,9475	1,508	1,4857
89,89	7,9519	1,5106	1,4882
90,03	7,9563	1,5114	1,4891
90,16	7,9606	1,5148	1,4925
90,3	7,965	1,5195	1,4971
90,43	7,9694	1,5195	1,4972
90,57	7,9737	1,5206	1,4983
90,7	7,9781	1,5215	1,4992
90,84	7,9825	1,5245	1,5021
90,98	7,9868	1,5267	1,5044
91,11	7,9912	1,5296	1,5072
91,25	7,9955	1,5325	1,5102
91,38	7,9999	1,534	1,5117
91,52	8,0043	1,5353	1,513
91,66	8,0086	1,5392	1,5169
91,79	8,013	1,5417	1,5194
91,93	8,0174	1,5442	1,5219
92,06	8,0217	1,5466	1,5243
92,2	8,0261	1,5536	1,5313
92,33	8,0305	1,5546	1,5323
92,47	8,0348	1,5547	1,5324
92,61	8,0392	1,5548	1,5325
92,74	8,0436	1,5548	1,5325
92,88	8,0479	1,5598	1,5375
93,01	8,0523	1,5642	1,5419
93,15	8,0567	1,5644	1,5421
93,28	8,061	1,5663	1,544
93,42	8,0654	1,5681	1,5458
93,56	8,0698	1,5695	1,5472
93,69	8,0741	1,5711	1,5488
93,83	8,0785	1,5738	1,5515
93,96	8,0829	1,577	1,5547
94,1	8,0872	1,5797	1,5574
94,24	8,0916	1,5822	1,5599
94,37	8,096	1,5847	1,5624
94,51	8,1003	1,5868	1,5645
94,64	8,1047	1,589	1,5667
94,78	8,1091	1,5912	1,5689
94,91	8,1134	1,5963	1,574
95,05	8,1178	1,6048	1,5825
95,19	8,1221	1,6048	1,5825
95,32	8,1265	1,6048	1,5825
95,46	8,1309	1,6048	1,5825
95,59	8,1352	1,6048	1,5825
95,73	8,1396	1,6049	1,5826
95,86	8,144	1,6049	1,5826
96	8,1483	1,6055	1,5831
96,14	8,1527	1,6147	1,5924
96,27	8,1571	1,6161	1,5938
96,41	8,1614	1,6177	1,5954
96,54	8,1658	1,6187	1,5964
96,68	8,1702	1,6223	1,6
96,82	8,1745	1,6247	1,6024
96,95	8,1789	1,6266	1,6043
97,09	8,1833	1,6299	1,6076
97,22	8,1876	1,6324	1,6101
97,36	8,192	1,6348	1,6125
97,49	8,1964	1,6372	1,6149
97,63	8,2007	1,6396	1,6173
97,77	8,2051	1,642	1,6197
97,9	8,2095	1,6466	1,6243
98,04	8,2138	1,6526	1,6303
98,17	8,2182	1,6527	1,6304
98,31	8,2226	1,6528	1,6305
98,44	8,2269	1,6528	1,6305
98,58	8,2313	1,6529	1,6306
98,72	8,2357	1,653	1,6307
98,85	8,24	1,6572	1,6349
98,99	8,2444	1,6619	1,6396
99,12	8,2487	1,6625	1,6402
99,26	8,2531	1,6652	1,6428
99,4	8,2575	1,6662	1,6439
99,53	8,2618	1,6684	1,6461
99,67	8,2662	1,6744	1,6521
99,8	8,2706	1,6752	1,6528
99,94	8,2749	1,6759	1,6536
100,1	8,2793	1,6788	1,6565
100,2	8,2837	1,6808	1,6585
100,3	8,288	1,6839	1,6616
100,5	8,2924	1,6867	1,6644
100,6	8,2968	1,6932	1,6709
100,8	8,3011	1,6995	1,6772
100,9	8,3055	1,6996	1,6773
101	8,3099	1,6996	1,6773
101,2	8,3142	1,6996	1,6773
101,3	8,3186	1,6997	1,6774
101,4	8,323	1,6997	1,6774
101,6	8,3273	1,6997	1,6774
101,7	8,3317	1,7018	1,6795
101,8	8,3361	1,7099	1,6876
102	8,3404	1,7103	1,688
102,1	8,3448	1,7126	1,6903
102,2	8,3492	1,7141	1,6918
102,4	8,3535	1,7158	1,6935
102,5	8,3579	1,7202	1,6978
102,7	8,3623	1,7225	1,7002
102,8	8,3666	1,725	1,7027
102,9	8,371	1,7274	1,7051
103,1	8,3753	1,7297	1,7074
103,2	8,3797	1,7316	1,7093
103,3	8,3841	1,7333	1,7109
103,5	8,3884	1,7428	1,7205
103,6	8,3928	1,7477	1,7254
103,7	8,3972	1,7477	1,7254
103,9	8,4015	1,7477	1,7254
104	8,4059	1,7477	1,7254
104,1	8,4103	1,7478	1,7254
104,3	8,4146	1,7478	1,7255
104,4	8,419	1,7478	1,7255
104,6	8,4234	1,7475	1,7252
104,7	8,4277	1,7559	1,7336
104,8	8,4321	1,7582	1,7359
105	8,4365	1,7601	1,7378
105,1	8,4408	1,7615	1,7392
105,2	8,4452	1,7635	1,7412
105,4	8,4496	1,7674	1,7451
105,5	8,4539	1,7704	1,7481
105,6	8,4583	1,7722	1,7498
105,8	8,4627	1,7736	1,7513
105,9	8,467	1,7771	1,7547
106	8,4714	1,7797	1,7574
106,2	8,4758	1,7824	1,7601
106,3	8,4801	1,7864	1,7641
106,5	8,4845	1,7972	1,7749
106,6	8,4888	1,7969	1,7746
106,7	8,4932	1,7966	1,7743
106,9	8,4976	1,7964	1,7741
107	8,5019	1,7961	1,7738
107,1	8,5063	1,7959	1,7736
107,3	8,5107	1,7956	1,7733
107,4	8,515	1,7956	1,7733
107,5	8,5194	1,7967	1,7744
107,7	8,5238	1,8059	1,7836
107,8	8,5281	1,8073	1,7849
107,9	8,5325	1,8097	1,7873
108,1	8,5369	1,8115	1,7892
108,2	8,5412	1,8147	1,7924
108,4	8,5456	1,817	1,7946
108,5	8,55	1,8201	1,7978
108,6	8,5543	1,8226	1,8002
108,8	8,5587	1,825	1,8026
108,9	8,5631	1,8273	1,805
109	8,5674	1,8297	1,8074
109,2	8,5718	1,8321	1,8098
109,3	8,5762	1,84	1,8177
109,4	8,5805	1,8418	1,8194
109,6	8,5849	1,8419	1,8195
109,7	8,5893	1,8419	1,8196
109,9	8,5857	1,842	1,8197
110	8,5666	1,842	1,8197
110,1	8,5475	1,8451	1,8228
110,3	8,5284	1,8498	1,8275
110,4	8,5093	1,8521	1,8297
110,5	8,4902	1,8535	1,8312
110,7	8,4712	1,8543	1,832
110,8	8,4521	1,8573	1,835
110,9	8,433	1,8587	1,8364
111,1	8,4139	1,8626	1,8403
111,2	8,3948	1,8649	1,8426
111,3	8,3757	1,8664	1,8441
111,5	8,3566	1,8693	1,8469
111,6	8,3375	1,8718	1,8495
111,8	8,3184	1,8744	1,852
111,9	8,2993	1,8769	1,8546
112	8,2802	1,8794	1,8571
112,2	8,2611	1,8901	1,8678
112,3	8,2421	1,8901	1,8678
112,4	8,223	1,8901	1,8678
112,6	8,2039	1,8901	1,8678
112,7	8,1848	1,8901	1,8678
112,8	8,1657	1,8902	1,8679
113	8,1466	1,8902	1,8679
113,1	8,1275	1,8937	1,8714
113,2	8,1084	1,8998	1,8775
113,4	8,0893	1,9013	1,879
113,5	8,0702	1,9024	1,8801
113,7	8,0511	1,9053	1,883
113,8	8,032	1,9063	1,884
113,9	8,013	1,9097	1,8874
114,1	7,9939	1,9125	1,8902
114,2	7,9748	1,9141	1,8918
114,3	7,9557	1,9164	1,8941
114,5	7,9366	1,9195	1,8972
114,6	7,9175	1,9221	1,8997
114,7	7,8984	1,9244	1,9021
114,9	7,8793	1,9268	1,9045
115	7,8602	1,9328	1,9105
115,1	7,8411	1,9373	1,915
115,3	7,822	1,9373	1,915
115,4	7,8029	1,9374	1,9151
115,6	7,7839	1,9374	1,9151
115,7	7,7648	1,9374	1,9151
115,8	7,7457	1,9394	1,9171
116	7,7266	1,9434	1,9211
116,1	7,7075	1,9482	1,9259
116,2	7,6884	1,9486	1,9263
116,4	7,6693	1,9495	1,9272
116,5	7,6502	1,9528	1,9305
116,6	7,6311	1,9542	1,9319
116,8	7,612	1,9576	1,9352
116,9	7,5929	1,9605	1,9382
117	7,5738	1,962	1,9397
117,2	7,5548	1,9637	1,9414
117,3	7,5357	1,9665	1,9442
117,5	7,5166	1,9693	1,947
117,6	7,4975	1,9719	1,9496
117,7	7,4784	1,9745	1,9522
117,9	7,4593	1,9799	1,9576
118	7,4402	1,9842	1,9619
118,1	7,4211	1,9843	1,962
118,3	7,402	1,9843	1,962
118,4	7,3829	1,9844	1,9621
118,5	7,3638	1,9844	1,9621
118,7	7,3447	1,9893	1,967
118,8	7,3257	1,9925	1,9702
118,9	7,3066	1,9957	1,9734
119,1	7,2875	1,996	1,9737
119,2	7,2684	1,9968	1,9745
119,4	7,2493	2,0003	1,978
119,5	7,2302	2,0013	1,979
119,6	7,2111	2,0034	1,9811
119,8	7,192	2,007	1,9847
119,9	7,1729	2,0101	1,9878
120	7,1538	2,0128	1,9905
120,2	7,1347	2,0151	1,9928
120,3	7,1156	2,0175	1,9952
120,4	7,0966	2,0198	1,9975
120,6	7,0775	2,0222	1,9998
120,7	7,0584	2,0246	2,0023
120,8	7,0393	2,0343	2,012
121	7,0202	2,0343	2,012
121,1	7,0011	2,0343	2,012
121,3	6,982	2,0343	2,012
121,4	6,9629	2,0343	2,012
121,5	6,9438	2,0343	2,012
121,7	6,9247	2,0343	2,012
121,8	6,9056	2,0389	2,0166
121,9	6,8865	2,0454	2,0231
122,1	6,8675	2,0458	2,0235
122,2	6,8484	2,0481	2,0258
122,3	6,8293	2,0494	2,027
122,5	6,8102	2,0519	2,0296
122,6	6,7911	2,0536	2,0313
122,8	6,772	2,0573	2,035
122,9	6,7529	2,0596	2,0373
123	6,7338	2,0617	2,0394
123,2	6,7147	2,0632	2,0409
123,3	6,6956	2,0669	2,0445
123,4	6,6765	2,0697	2,0474
123,6	6,6574	2,0816	2,0593
123,7	6,6384	2,0815	2,0592
123,8	6,6193	2,0814	2,0591
124	6,6002	2,0813	2,059
124,1	6,5811	2,0812	2,0589
124,2	6,562	2,0811	2,0588
124,4	6,5429	2,081	2,0587
124,5	6,5238	2,0809	2,0586
124,7	6,5047	2,0839	2,0616
124,8	6,4856	2,0922	2,0698
124,9	6,4665	2,093	2,0707
125,1	6,4474	2,0954	2,0731
125,2	6,4283	2,0967	2,0743
125,3	6,4092	2,0992	2,0769
125,5	6,3902	2,1026	2,0803
125,6	6,3711	2,1048	2,0825
125,7	6,352	2,1063	2,084
125,9	6,3329	2,1092	2,0869
126	6,3138	2,1117	2,0894
126,1	6,2947	2,1142	2,0919
126,3	6,2756	2,1167	2,0944
126,4	6,2565	2,1218	2,0995
126,6	6,2374	2,1259	2,1036
126,7	6,2183	2,1259	2,1036
126,8	6,1992	2,126	2,1036
127	6,1801	2,126	2,1037
127,1	6,1611	2,1302	2,1079
127,2	6,142	2,1333	2,111
127,4	6,1229	2,1352	2,1129
127,5	6,1038	2,137	2,1147
127,6	6,0847	2,1388	2,1165
127,8	6,0656	2,1403	2,1179
127,9	6,0465	2,1416	2,1193
128	6,0274	2,1443	2,122
128,2	6,0083	2,1471	2,1247
128,3	5,9892	2,1503	2,128
128,5	5,9701	2,1527	2,1304
128,6	5,951	2,1548	2,1325
128,7	5,932	2,157	2,1347
128,9	5,9129	2,1592	2,1369
129	5,8938	2,1613	2,139
129,1	5,8747	2,1651	2,1428
129,3	5,8556	2,1732	2,1509
129,4	5,8365	2,1739	2,1516
129,5	5,8174	2,1739	2,1516
129,7	5,7983	2,174	2,1517
129,8	5,7792	2,174	2,1517
129,9	5,7601	2,174	2,1517
130,1	5,741	2,1793	2,157
130,2	5,7219	2,1813	2,159
130,4	5,7029	2,1862	2,1639
130,5	5,6838	2,1873	2,165
130,6	5,6647	2,1877	2,1654
130,8	5,6456	2,1895	2,1672
130,9	5,6265	2,1921	2,1698
131	5,6074	2,1946	2,1723
131,2	5,5883	2,1969	2,1746
131,3	5,5692	2,1997	2,1773
131,4	5,5501	2,2024	2,1801
131,6	5,531	2,2048	2,1825
131,7	5,5119	2,2072	2,1849
131,8	5,4928	2,2096	2,1873
132	5,4738	2,212	2,1897
132,1	5,4547	2,2153	2,193
132,3	5,4356	2,222	2,1997
132,4	5,4165	2,2221	2,1998
132,5	5,3974	2,2221	2,1998
132,7	5,3783	2,2222	2,1999
132,8	5,3592	2,2222	2,1999
132,9	5,3401	2,2258	2,2035
133,1	5,321	2,2323	2,21
133,2	5,3019	2,2324	2,2101
133,3	5,2828	2,2334	2,2111
133,5	5,2637	2,2354	2,213
133,6	5,2447	2,2367	2,2144
133,7	5,2256	2,2393	2,217
133,9	5,2065	2,2438	2,2215
134	5,1874	2,2461	2,2238
134,2	5,1683	2,2469	2,2246
134,3	5,1492	2,2487	2,2264
134,4	5,1301	2,2514	2,2291
134,6	5,111	2,2531	2,2308
134,7	5,0919	2,2567	2,2344
134,8	5,0728	2,2618	2,2394
135	5,0537	2,2678	2,2455
135,1	5,0346	2,2679	2,2456
135,2	5,0156	2,2679	2,2456
135,4	4,9965	2,2679	2,2456
135,5	4,9774	2,268	2,2457
135,6	4,9583	2,2742	2,2519
135,8	4,9392	2,276	2,2537
135,9	4,9201	2,2776	2,2552
136,1	4,901	2,2793	2,257
136,2	4,8819	2,2807	2,2584
136,3	4,8628	2,2828	2,2605
136,5	4,8437	2,2842	2,2619
136,6	4,8246	2,2865	2,2642
136,7	4,8055	2,2897	2,2674
136,9	4,7865	2,293	2,2707
137	4,7674	2,2954	2,2731
137,1	4,7483	2,2977	2,2754
137,3	4,7292	2,3	2,2777
137,4	4,7101	2,3022	2,2799
137,6	4,691	2,3045	2,2822
137,7	4,6719	2,3075	2,2852
137,8	4,6528	2,3098	2,2875
138	4,6337	2,3205	2,2982
138,1	4,6146	2,3205	2,2982
138,2	4,5955	2,3205	2,2982
138,4	4,5764	2,3205	2,2982
138,5	4,5574	2,3205	2,2982
138,6	4,5383	2,3205	2,2982
138,8	4,5192	2,3205	2,2982
138,9	4,5001	2,3223	2,3
139	4,481	2,3296	2,3072
139,2	4,4619	2,331	2,3087
139,3	4,4428	2,3319	2,3096
139,5	4,4237	2,3343	2,312
139,6	4,4046	2,3376	2,3153
139,7	4,3855	2,3401	2,3178
139,9	4,3664	2,3426	2,3203
140	4,3473	2,3443	2,322
140,1	4,3283	2,3459	2,3235
140,3	4,3092	2,3497	2,3273
140,4	4,2901	2,3521	2,3298
140,5	4,271	2,3546	2,3322
140,7	4,2522	2,3636	2,3413
140,8	4,2363	2,3675	2,3452
140,9	4,2203	2,3673	2,345
141,1	4,2043	2,3671	2,3448
141,2	4,1883	2,3669	2,3446
141,4	4,1724	2,3666	2,3443
141,5	4,1564	2,3672	2,3449
141,6	4,1404	2,3673	2,345
141,8	4,1244	2,3673	2,345
141,9	4,1085	2,3768	2,3545
142	4,0925	2,3784	2,3561
142,2	4,0765	2,3801	2,3578
142,3	4,0605	2,3812	2,3589
142,4	4,0446	2,3848	2,3625
142,6	4,0286	2,3868	2,3645
142,7	4,0126	2,3905	2,3682
142,8	3,9966	2,3919	2,3696
143	3,9807	2,3944	2,3721
143,1	3,9647	2,3969	2,3746
143,3	3,9487	2,3994	2,3771
143,4	3,9327	2,4018	2,3795
143,5	3,9168	2,4041	2,3818
143,7	3,9008	2,4138	2,3915
143,8	3,8848	2,4138	2,3915
143,9	3,8688	2,4139	2,3915
144,1	3,8529	2,4139	2,3916
144,2	3,8369	2,4139	2,3916
144,3	3,8209	2,414	2,3917
144,5	3,8049	2,4155	2,3932
144,6	3,7889	2,4204	2,3981
144,7	3,773	2,4253	2,403
144,9	3,757	2,4256	2,4033
145	3,741	2,428	2,4056
145,2	3,725	2,4289	2,4065
145,3	3,7091	2,4325	2,4102
145,4	3,6931	2,4347	2,4124
145,6	3,6771	2,4369	2,4146
145,7	3,6611	2,4399	2,4176
145,8	3,6452	2,4425	2,4202
146	3,6292	2,4448	2,4225
146,1	3,6132	2,4471	2,4248
146,2	3,5972	2,4494	2,4271
146,4	3,5813	2,454	2,4317
146,5	3,5653	2,4614	2,4391
146,6	3,5493	2,4614	2,4391
146,8	3,5333	2,4614	2,4391
146,9	3,5174	2,4614	2,4391
147,1	3,5014	2,4615	2,4391
147,2	3,4854	2,4615	2,4392
147,3	3,4694	2,4652	2,4429
147,5	3,4535	2,4706	2,4483
147,6	3,4375	2,4716	2,4493
147,7	3,4215	2,473	2,4507
147,9	3,4055	2,4755	2,4532
148	3,3896	2,4768	2,4545
148,1	3,3736	2,4796	2,4573
148,3	3,3576	2,4832	2,4609
148,4	3,3416	2,4848	2,4625
148,5	3,3257	2,4861	2,4638
148,7	3,3097	2,4896	2,4673
148,8	3,2937	2,4921	2,4698
149	3,2777	2,4946	2,4723
149,1	3,2618	2,4971	2,4748
149,2	3,2458	2,4996	2,4773
149,4	3,2298	2,5078	2,4855
149,5	3,2138	2,508	2,4857
149,6	3,1979	2,5081	2,4858
149,8	3,1819	2,5082	2,4859
149,9	3,1659	2,5083	2,486
150	3,1499	2,5085	2,4862
150,2	3,134	2,5118	2,4895
150,3	3,118	2,519	2,4966
150,5	3,102	2,5196	2,4973
150,6	3,086	2,5201	2,4978
150,7	3,07	2,5229	2,5006
150,9	3,0541	2,5248	2,5025
151	3,0381	2,527	2,5047
151,1	3,0221	2,5309	2,5086
151,3	3,0061	2,5324	2,5101
151,4	2,9902	2,5339	2,5116
151,5	2,9742	2,5369	2,5146
151,7	2,9582	2,5394	2,5171
151,8	2,9422	2,5419	2,5196
151,9	2,9263	2,5444	2,5221
152,1	2,9103	2,5478	2,5255
152,2	2,8943	2,5528	2,5305
152,4	2,8783	2,5545	2,5322
152,5	2,8624	2,5546	2,5323
152,6	2,8464	2,5547	2,5323
152,8	2,8304	2,5557	2,5334
152,9	2,8144	2,5597	2,5373
153	2,7985	2,5631	2,5408
153,2	2,7825	2,5671	2,5448
153,3	2,7665	2,5671	2,5448
153,4	2,7505	2,5673	2,545
153,6	2,7346	2,5697	2,5473
153,7	2,7186	2,5721	2,5498
153,8	2,7026	2,5745	2,5522
154	2,6866	2,5764	2,5541
154,1	2,6707	2,5805	2,5582
154,3	2,6547	2,5829	2,5606
154,4	2,6387	2,5852	2,5629
154,5	2,6227	2,5876	2,5653
154,7	2,6068	2,5899	2,5676
154,8	2,5908	2,5922	2,5699
154,9	2,5748	2,5946	2,5723
155,1	2,5588	2,5973	2,575
155,2	2,5429	2,6065	2,5842
155,3	2,5269	2,6065	2,5842
155,5	2,5109	2,6065	2,5842
155,6	2,4949	2,6066	2,5843
155,7	2,479	2,6066	2,5843
155,9	2,463	2,6066	2,5843
156	2,447	2,607	2,5846
156,2	2,431	2,6144	2,5921
156,3	2,4151	2,6168	2,5945
156,4	2,3991	2,6182	2,5959
156,6	2,3831	2,62	2,5977
156,7	2,3671	2,6218	2,5995
156,8	2,3511	2,6242	2,6019
157	2,3352	2,6272	2,6049
157,1	2,3192	2,6299	2,6076
157,2	2,3032	2,6321	2,6098
157,4	2,2872	2,634	2,6117
157,5	2,2713	2,6361	2,6138
157,6	2,2553	2,6393	2,617
157,8	2,2393	2,6425	2,6202
157,9	2,2233	2,6544	2,6321
158,1	2,2074	2,654	2,6317
158,2	2,1914	2,6537	2,6313
158,3	2,1754	2,6533	2,631
158,5	2,1594	2,6533	2,6309
158,6	2,1435	2,6532	2,6309
158,7	2,1275	2,6532	2,6309
158,9	2,1115	2,6534	2,631
159	2,0955	2,6594	2,6371
159,1	2,0796	2,6644	2,6421
159,3	2,0636	2,6647	2,6424
159,4	2,0476	2,6679	2,6456
159,5	2,0316	2,6691	2,6468
159,7	2,0157	2,6727	2,6504
159,8	1,9997	2,6755	2,6531
160	1,9837	2,6765	2,6542
160,1	1,9677	2,679	2,6567
160,2	1,9518	2,682	2,6597
160,4	1,9358	2,6846	2,6623
160,5	1,9198	2,6869	2,6646
160,6	1,9038	2,6892	2,6669
160,8	1,8879	2,6951	2,6728
160,9	1,8719	2,6996	2,6773
161	1,8559	2,6996	2,6773
161,2	1,8399	2,6996	2,6773
161,3	1,824	2,6996	2,6773
161,4	1,808	2,6996	2,6773
161,6	1,792	2,7013	2,679
161,7	1,776	2,7089	2,6866
161,9	1,7601	2,7098	2,6875
162	1,7441	2,7112	2,6889
162,1	1,7281	2,712	2,6897
162,3	1,7121	2,7144	2,6921
162,4	1,6962	2,7162	2,6939
162,5	1,6802	2,7199	2,6976
162,7	1,6642	2,7229	2,7006
162,8	1,6482	2,7251	2,7028
162,9	1,6322	2,7273	2,705
163,1	1,6163	2,7295	2,7072
163,2	1,6003	2,7312	2,7089
163,3	1,5843	2,734	2,7117
163,5	1,5683	2,7404	2,7181
163,6	1,5524	2,7495	2,7272
163,8	1,5364	2,749	2,7267
163,9	1,5204	2,7485	2,7262
164	1,5044	2,7482	2,7259
164,2	1,4885	2,748	2,7257
164,3	1,4725	2,7479	2,7256
164,4	1,4565	2,7477	2,7254
164,6	1,4405	2,7482	2,7259
164,7	1,4246	2,7512	2,7289
164,8	1,4086	2,7593	2,737
165	1,3926	2,76	2,7377
165,1	1,3766	2,7621	2,7398
165,3	1,3607	2,7646	2,7423
165,4	1,3447	2,7671	2,7448
165,5	1,3287	2,7701	2,7477
165,7	1,3127	2,773	2,7507
165,8	1,2968	2,7754	2,7531
165,9	1,2808	2,7779	2,7556
166,1	1,2648	2,7803	2,758
166,2	1,2488	2,7827	2,7604
166,3	1,2329	2,7849	2,7626
166,5	1,2169	2,7896	2,7673
166,6	1,2009	2,7934	2,7711
166,7	1,1849	2,7935	2,7712
166,9	1,169	2,7936	2,7713
167	1,153	2,7936	2,7713
167,2	1,137	2,7945	2,7722
167,3	1,121	2,8023	2,78
167,4	1,1051	2,8027	2,7804
167,6	1,0891	2,8041	2,7818
167,7	1,0731	2,8048	2,7825
167,8	1,0571	2,8077	2,7854
168	1,0412	2,8091	2,7868
168,1	1,0252	2,812	2,7897
168,2	1,0092	2,8158	2,7935
168,4	0,99323	2,8179	2,7956
168,5	0,97725	2,82	2,7977
168,6	0,96128	2,8221	2,7998
168,8	0,94906	2,8235	2,8012
168,9	0,94441	2,8268	2,8045
169,1	0,93976	2,8296	2,8073
169,2	0,93511	2,8359	2,8136
169,3	0,93046	2,8428	2,8205
169,5	0,92581	2,8428	2,8205
169,6	0,92117	2,8428	2,8205
169,7	0,91652	2,8428	2,8205
169,9	0,91187	2,8428	2,8205
170	0,90722	2,8428	2,8205
170,1	0,90257	2,8428	2,8205
170,3	0,89792	2,8435	2,8212
170,4	0,89327	2,8529	2,8306
170,5	0,88862	2,8533	2,831
170,7	0,88397	2,8554	2,8331
170,8	0,87932	2,8568	2,8345
171	0,87467	2,8589	2,8366
171,1	0,87002	2,8631	2,8408
171,2	0,86538	2,8653	2,843
171,4	0,86073	2,8675	2,8452
171,5	0,85608	2,8697	2,8474
171,6	0,85143	2,872	2,8497
171,8	0,84678	2,874	2,8517
171,9	0,84213	2,8769	2,8546
172	0,83748	2,8867	2,8644
172,2	0,83283	2,8868	2,8645
172,3	0,82818	2,8869	2,8646
172,4	0,82353	2,887	2,8646
172,6	0,81888	2,887	2,8647
172,7	0,81423	2,8871	2,8648
172,9	0,80959	2,889	2,8667
173	0,80494	2,8941	2,8718
173,1	0,80029	2,8993	2,877
173,3	0,79564	2,8999	2,8776
173,4	0,79099	2,9002	2,8779
173,5	0,78634	2,903	2,8807
173,7	0,78169	2,9041	2,8817
173,8	0,77704	2,9067	2,8844
173,9	0,77239	2,9098	2,8875
174,1	0,76774	2,9131	2,8908
174,2	0,76309	2,915	2,8927
174,3	0,75845	2,9165	2,8942
174,5	0,7538	2,9194	2,8971
174,6	0,74915	2,9224	2,9001
174,8	0,7445	2,925	2,9027
174,9	0,73985	2,9279	2,9056
175	0,7352	2,9389	2,9166
175,2	0,73055	2,939	2,9166
175,3	0,7259	2,939	2,9167
175,4	0,72125	2,939	2,9167
175,6	0,7166	2,939	2,9167
175,7	0,71195	2,939	2,9167
175,8	0,7073	2,939	2,9167
176	0,70266	2,939	2,9167
176,1	0,69801	2,9434	2,9211
176,2	0,69336	2,95	2,9276
176,4	0,68871	2,9502	2,9279
176,5	0,68406	2,952	2,9297
176,7	0,67941	2,954	2,9317
176,8	0,67476	2,9572	2,9349
176,9	0,67011	2,9608	2,9385
177,1	0,66546	2,9631	2,9408
177,2	0,66081	2,9656	2,9433
177,3	0,65616	2,9675	2,9452
177,5	0,65152	2,9699	2,9476
177,6	0,64687	2,9723	2,95
177,7	0,64222	2,9745	2,9522
177,9	0,63757	2,9781	2,9558
178	0,63292	2,9861	2,9638
178,2	0,62827	2,9863	2,964
178,3	0,62362	2,9865	2,9642
178,4	0,61897	2,9866	2,9643
178,6	0,61432	2,9867	2,9644
178,7	0,60967	2,9868	2,9645
178,8	0,60502	2,9869	2,9646
179	0,60037	2,993	2,9707
179,1	0,59573	2,9967	2,9744
179,2	0,59108	2,9974	2,9751
179,4	0,58643	2,9999	2,9776
179,5	0,58178	3,0021	2,9798
179,6	0,57713	3,0038	2,9815
179,8	0,57248	3,0076	2,9853
179,9	0,56783	3,0105	2,9882
180,1	0,56318	3,0128	2,9905
180,2	0,55853	3,015	2,9927
180,3	0,55388	3,0172	2,9949
180,5	0,54923	3,0187	2,9964
180,6	0,54458	3,0268	3,0045
180,7	0,53994	3,0327	3,0104
180,9	0,53529	3,0326	3,0103
181	0,53064	3,0326	3,0103
181,1	0,52599	3,0325	3,0102
181,3	0,52134	3,0324	3,0101
181,4	0,51669	3,0323	3,01
181,5	0,51204	3,0323	3,01
181,7	0,50739	3,0336	3,0113
181,8	0,50274	3,0406	3,0183
182	0,49809	3,0448	3,0225
182,1	0,49344	3,0454	3,0231
182,2	0,4888	3,0479	3,0256
182,4	0,48415	3,0489	3,0266
182,5	0,4795	3,053	3,0307
182,6	0,47485	3,0559	3,0336
182,8	0,4702	3,0573	3,035
182,9	0,46555	3,0601	3,0378
183	0,4609	3,0626	3,0403
183,2	0,45625	3,065	3,0427
183,3	0,4516	3,0674	3,0451
183,4	0,44695	3,0698	3,0475
183,6	0,4423	3,0758	3,0535
183,7	0,43765	3,078	3,0557
183,9	0,43301	3,0782	3,0559
184	0,42836	3,0785	3,0562
184,1	0,42371	3,0787	3,0564
184,3	0,41906	3,0799	3,0576
184,4	0,41441	3,0856	3,0633
184,5	0,40976	3,089	3,0667
184,7	0,40511	3,0901	3,0677
184,8	0,40046	3,0911	3,0688
184,9	0,39581	3,0922	3,0699
185,1	0,39116	3,0956	3,0733
185,2	0,38651	3,0968	3,0745
185,3	0,38187	3,0999	3,0776
185,5	0,37722	3,1031	3,0808
185,6	0,37257	3,1044	3,0821
185,8	0,36792	3,1065	3,0842
185,9	0,36327	3,1094	3,0871
186	0,35862	3,112	3,0897
186,2	0,35397	3,1146	3,0923
186,3	0,34932	3,1172	3,0949
186,4	0,34467	3,1219	3,0996
186,6	0,34002	3,1229	3,1006
186,7	0,33537	3,1247	3,1024
186,8	0,33072	3,13	3,1077
187	0,32608	3,13	3,1077
187,1	0,32143	3,13	3,1077
187,2	0,31678	3,1301	3,1078
187,4	0,31213	3,1354	3,1131
187,5	0,30748	3,1386	3,1163
187,7	0,30283	3,1391	3,1168
187,8	0,29818	3,1396	3,1172
187,9	0,29353	3,1432	3,1209
188,1	0,28888	3,1446	3,1223
188,2	0,28423	3,1467	3,1244
188,3	0,27958	3,1505	3,1282
188,5	0,27494	3,153	3,1307
188,6	0,27029	3,1554	3,1331
188,7	0,26564	3,1579	3,1356
188,9	0,26099	3,1603	3,138
189	0,25634	3,1628	3,1405
189,1	0,25169	3,1653	3,143
189,3	0,24704	3,1678	3,1455
189,4	0,24239	3,1763	3,154
189,6	0,23774	3,1768	3,1545
189,7	0,23309	3,1768	3,1545
189,8	0,22844	3,1768	3,1545
190	0,22379	3,1769	3,1545
190,1	0,21915	3,1769	3,1546
190,2	0,2145	3,1779	3,1555
190,4	0,20985	3,185	3,1626
190,5	0,2052	3,188	3,1657
190,6	0,20055	3,1882	3,1658
190,8	0,1959	3,1905	3,1682
190,9	0,19125	3,1918	3,1695
191,1	0,1866	3,1942	3,1719
191,2	0,18195	3,1972	3,1749
191,3	0,1773	3,2009	3,1786
191,5	0,17265	3,2027	3,1804
191,6	0,168	3,204	3,1816
191,7	0,16336	3,2069	3,1846
191,9	0,15871	3,2097	3,1874
192	0,15406	3,2125	3,1902
192,1	0,14941	3,2205	3,1982
192,3	0,14476	3,2233	3,201
192,4	0,14011	3,2233	3,201
192,5	0,13546	3,2234	3,2011
192,7	0,13081	3,2234	3,2011
192,8	0,12616	3,2234	3,2011
193	0,12151	3,2235	3,2012
193,1	0,11686	3,2277	3,2054
193,2	0,11222	3,2339	3,2116
193,4	0,10757	3,2341	3,2118
193,5	0,10292	3,2352	3,2129
193,6	0,098268	3,238	3,2157
193,8	0,093619	3,2393	3,217
193,9	0,08897	3,2427	3,2204
194	0,08432	3,2459	3,2236
194,2	0,079671	3,2471	3,2248
194,3	0,075022	3,2492	3,2269
194,4	0,070373	3,2526	3,2303
194,6	0,065724	3,255	3,2327
194,7	0,061075	3,2572	3,2349
194,9	0,056426	3,2595	3,2372
195	0,051776	3,2631	3,2408
195,1	0,047127	3,2682	3,2459
195,3	0,042478	3,2684	3,2461
195,4	0,037829	3,2687	3,2464
195,5	0,03318	3,2689	3,2466
195,7	0,028531	3,272	3,2496
195,8	0,023882	3,2764	3,254
195,9	0,019232	3,2783	3,256
196,1	0,014583	3,2801	3,2578
196,2	0,0099342	3,2819	3,2596
196,3	0,005285	3,2831	3,2608
196,5	0,0006359	3,2846	3,2623
196,6	-0,0040132	3,2869	3,2646
196,8	-0,0086624	3,2894	3,2671
196,9	-0,013312	3,2927	3,2704
197	-0,017961	3,2956	3,2733
197,2	-0,02261	3,2975	3,2752
197,3	-0,027259	3,2995	3,2772
197,4	-0,031908	3,3014	3,2791
197,6	-0,036557	3,3057	3,2834
197,7	-0,041206	3,3081	3,2858
197,8	-0,045855	3,3103	3,288
198	-0,050505	3,3185	3,2962
198,1	-0,055154	3,3197	3,2974
198,2	-0,059803	3,3197	3,2974
198,4	-0,064452	3,3197	3,2974
198,5	-0,069101	3,3197	3,2974
198,7	-0,07375	3,3198	3,2974
198,8	-0,078399	3,3204	3,2981
198,9	-0,083049	3,328	3,3057
199,1	-0,087698	3,3299	3,3076
199,2	-0,092347	3,3301	3,3078
199,3	-0,096996	3,3323	3,31
199,5	-0,10165	3,3346	3,3123
199,6	-0,10629	3,3367	3,3144
199,7	-0,11094	3,3408	3,3185
199,9	-0,11559	3,3433	3,321
200	-0,12024	3,3454	3,3231
200,1	-0,12489	3,3475	3,3252
200,3	-0,12954	3,3496	3,3273
200,4	-0,13419	3,3512	3,3288
200,6	-0,13884	3,357	3,3347
200,7	-0,14349	3,3597	3,3374
200,8	-0,14814	3,3603	3,338
201	-0,15279	3,3619	3,3395
201,1	-0,15743	3,3662	3,3439
201,2	-0,16208	3,3667	3,3444
201,4	-0,16673	3,3672	3,3449
201,5	-0,17138	3,3706	3,3483
201,6	-0,17603	3,3738	3,3515
201,8	-0,18068	3,3756	3,3533
201,9	-0,18533	3,3763	3,354
202	-0,18998	3,3779	3,3556
202,2	-0,19463
202,2	-0,1959