File: Tests de traction/Fichiers source/04_07_2016/Sample_13_250N.txt
Time (s)	Load (N)	Machine Extension (mm)	Extension from Preload (mm)
0
0,6975	0,70479	0,030188	7,3643E-06
1,395	1,341	0,046994	0,016813
2,092	1,8077	0,057788	0,027608
2,79	2,3026	0,069451	0,039271
3,487	2,8769	0,081552	0,051371
4,185	3,5835	0,094604	0,064424
4,882	4,0772	0,10593	0,07575
5,58	4,6067	0,11612	0,085941
6,277	5,0828	0,1278	0,097624
6,975	5,6851	0,13941	0,10923
7,672	6,2736	0,15303	0,12285
8,37	6,6937	0,16316	0,13297
9,067	7,0846	0,17429	0,14411
9,765	7,5967	0,18638	0,1562
10,46	8,2733	0,20148	0,1713
11,16	8,4668	0,20854	0,17836
11,86	8,8921	0,22	0,18982
12,55	9,3215	0,2321	0,20192
13,25	9,9304	0,24799	0,21781
13,95	10,291	0,25829	0,22811
14,65	10,421	0,26575	0,23557
15,34	10,866	0,27955	0,24937
16,04	11,69	0,29965	0,26947
16,74	11,249	0,29953	0,26935
17,44	11,683	0,31269	0,28251
18,13	12,007	0,32484	0,29465
18,83	12,658	0,34516	0,31498
19,53	12,263	0,3452	0,31502
20,23	12,684	0,35897	0,32879
20,92	13,021	0,37112	0,34094
21,62	13,479	0,38578	0,3556
22,32	13,403	0,39191	0,36173
23,02	13,8	0,40573	0,37555
23,71	14,108	0,41888	0,3887
24,41	14,435	0,43269	0,40251
25,11	14,531	0,44256	0,41238
25,81	14,646	0,45242	0,42224
26,5	14,901	0,46524	0,43506
27,2	15,122	0,47764	0,44746
27,9	15,113	0,48686	0,45668
28,6	15,364	0,49926	0,46908
29,29	15,583	0,51117	0,48099
29,99	15,83	0,52443	0,49425
30,69	15,785	0,53576	0,50558
31,39	16,023	0,54536	0,51518
32,08	16,154	0,55847	0,52829
32,78	16,432	0,57184	0,54166
33,48	16,443	0,58267	0,55249
34,18	16,532	0,59305	0,56287
34,87	16,607	0,60399	0,57381
35,57	16,73	0,61618	0,586
36,27	16,852	0,63032	0,60014
36,97	16,931	0,64092	0,61074
37,66	16,941	0,65034	0,62016
38,36	16,513	0,66324	0,63306
39,06	16,587	0,67735	0,64717
39,76	16,615	0,68639	0,65621
40,45	16,641	0,69605	0,66587
41,15	16,815	0,70879	0,67861
41,85	16,919	0,72168	0,6915
42,55	17,066	0,73376	0,70358
43,24	17,048	0,74297	0,71279
43,94	17,244	0,75585	0,72567
44,64	17,474	0,77182	0,74164
45,34	17,353	0,77809	0,74791
46,03	17,384	0,78906	0,75888
46,73	17,504	0,80209	0,77191
47,43	17,951	0,82174	0,79156
48,13	17,419	0,82225	0,79207
48,82	17,592	0,83503	0,80485
49,52	17,784	0,84909	0,81891
50,22	18,021	0,86362	0,83344
50,92	17,67	0,86876	0,83858
51,61	17,894	0,88266	0,85248
52,31	17,989	0,89497	0,86479
53,01	18,238	0,91069	0,88051
53,71	17,888	0,91625	0,88606
54,4	18,076	0,92847	0,89829
55,1	18,214	0,9412	0,91102
55,8	18,308	0,95396	0,92378
56,5	18,147	0,96351	0,93333
57,19	18,31	0,9747	0,94452
57,89	18,455	0,98789	0,95771
58,59	18,528	1,0003	0,97009
59,29	18,374	1,0105	0,98035
59,98	18,537	1,0222	0,99206
60,68	18,649	1,0349	1,0047
61,38	18,713	1,0471	1,017
62,08	18,686	1,0585	1,0283
62,77	18,719	1,0683	1,0382
63,47	18,798	1,0811	1,0509
64,17	18,927	1,0933	1,0632
64,87	18,893	1,1051	1,0749
65,56	18,905	1,1162	1,086
66,26	18,974	1,1272	1,097
66,96	18,966	1,1386	1,1084
67,66	19,142	1,1531	1,123
68,35	19,123	1,1636	1,1334
69,05	19,154	1,1739	1,1437
69,75	19,215	1,1856	1,1555
70,44	19,317	1,2004	1,1702
71,14	19,355	1,2114	1,1812
71,84	19,229	1,2198	1,1896
72,54	19,336	1,2325	1,2023
73,23	19,462	1,2462	1,216
73,93	19,346	1,2542	1,224
74,63	19,363	1,2647	1,2346
75,33	19,455	1,2783	1,2482
76,02	19,803	1,2962	1,266
76,72	19,509	1,301	1,2708
77,42	19,518	1,312	1,2818
78,12	19,661	1,3254	1,2953
78,81	20,03	1,3438	1,3136
79,51	19,429	1,344	1,3138
80,21	19,718	1,3587	1,3286
80,91	19,741	1,3702	1,34
81,6	19,968	1,3858	1,3556
82,3	19,886	1,395	1,3648
83	19,78	1,4046	1,3745
83,7	19,96	1,4185	1,3883
84,39	20,005	1,4306	1,4004
85,09	19,885	1,441	1,4108
85,79	19,948	1,4523	1,4222
86,49	20,064	1,4652	1,435
87,18	20,197	1,477	1,4469
87,88	20,028	1,4872	1,457
88,58	20,149	1,4981	1,4679
89,28	20,266	1,5114	1,4812
89,97	20,315	1,5229	1,4927
90,67	20,221	1,5337	1,5036
91,37	20,36	1,5453	1,5151
92,07	20,442	1,5573	1,5271
92,76	20,49	1,5685	1,5384
93,46	20,338	1,5792	1,549
94,16	20,585	1,593	1,5629
94,86	20,549	1,6039	1,5738
95,55	20,644	1,6162	1,586
96,25	20,657	1,6291	1,5989
96,95	20,639	1,6387	1,6085
97,65	20,731	1,6514	1,6212
98,34	20,719	1,6624	1,6322
99,04	20,799	1,6749	1,6448
99,74	20,84	1,6862	1,6561
100,4	20,864	1,6963	1,6661
101,1	20,863	1,7077	1,6775
101,8	21,116	1,7251	1,6949
102,5	20,689	1,7266	1,6965
103,2	20,989	1,7418	1,7116
103,9	21,109	1,7553	1,7251
104,6	21,535	1,775	1,7448
105,3	20,885	1,775	1,7449
106	21,136	1,7888	1,7586
106,7	21,311	1,8019	1,7717
107,4	21,596	1,8196	1,7894
108,1	21,048	1,8216	1,7915
108,8	21,228	1,835	1,8049
109,5	21,352	1,8482	1,818
110,2	21,487	1,863	1,8328
110,9	21,341	1,8716	1,8415
111,6	21,195	1,8814	1,8512
112,3	21,142	1,8937	1,8635
113	21,174	1,9093	1,8791
113,7	20,655	1,919	1,8888
114,4	19,865	1,9281	1,8979
115,1	19,751	1,9406	1,9105
115,8	20,103	1,9576	1,9274
116,5	19,656	1,9615	1,9313
117,2	19,869	1,974	1,9438
117,9	20,162	1,9885	1,9583
118,6	20,295	1,9998	1,9696
119,3	20,275	2,0106	1,9804
120	20,405	2,0224	1,9922
120,7	20,536	2,0342	2,0041
121,4	20,704	2,0462	2,016
122,1	20,758	2,0586	2,0284
122,8	20,831	2,0697	2,0395
123,5	20,892	2,0808	2,0506
124,2	20,869	2,0922	2,062
124,8	20,947	2,1044	2,0743
125,5	20,936	2,1157	2,0855
126,2	20,992	2,1262	2,096
126,9	21,045	2,1377	2,1075
127,6	21,068	2,1504	2,1202
128,3	21,34	2,165	2,1348
129	21,188	2,1724	2,1423
129,7	21,321	2,1859	2,1558
130,4	21,444	2,1989	2,1687
131,1	21,422	2,2102	2,18
131,8	21,387	2,2196	2,1894
132,5	21,385	2,2311	2,2009
133,2	21,797	2,2492	2,219
133,9	21,285	2,2515	2,2213
134,6	21,419	2,2648	2,2346
135,3	21,527	2,2777	2,2476
136	21,982	2,2955	2,2653
136,7	21,586	2,3012	2,271
137,4	21,604	2,311	2,2808
138,1	21,702	2,3245	2,2943
138,8	22,25	2,3443	2,3142
139,5	21,526	2,3444	2,3143
140,2	21,727	2,358	2,3278
140,9	21,884	2,3713	2,3411
141,6	22,106	2,3863	2,3561
142,3	21,668	2,3913	2,3611
143	21,862	2,4046	2,3744
143,7	21,987	2,4181	2,3879
144,4	22,163	2,4326	2,4025
145,1	22,031	2,4413	2,4111
145,8	21,925	2,451	2,4208
146,5	22,027	2,4638	2,4336
147,2	22,151	2,477	2,4468
147,9	22,028	2,4873	2,4571
148,6	22,036	2,4976	2,4674
149,3	22,154	2,5108	2,4807
150	22,321	2,5245	2,4943
150,7	22,232	2,5335	2,5033
151,4	22,187	2,5449	2,5147
152	22,296	2,5581	2,5279
152,7	22,278	2,5686	2,5384
153,4	22,332	2,581	2,5509
154,1	22,431	2,5939	2,5637
154,8	22,374	2,6033	2,5732
155,5	22,481	2,6154	2,5853
156,2	22,518	2,6289	2,5987
156,9	22,543	2,6403	2,6101
157,6	22,478	2,6498	2,6196
158,3	22,55	2,6629	2,6327
159	22,712	2,6765	2,6463
159,7	22,707	2,6874	2,6572
160,4	22,502	2,6948	2,6646
161,1	22,568	2,7073	2,6771
161,8	22,949	2,7252	2,695
162,5	22,636	2,7307	2,7005
163,2	22,594	2,741	2,7109
163,9	22,765	2,7541	2,7239
164,6	23,034	2,7721	2,7419
165,3	22,651	2,7757	2,7455
166	22,689	2,7876	2,7574
166,7	22,797	2,8006	2,7704
167,4	23,251	2,8194	2,7892
168,1	22,59	2,8202	2,79
168,8	22,823	2,8344	2,8043
169,5	22,907	2,8473	2,8172
170,2	23,326	2,8653	2,8351
170,9	22,994	2,8708	2,8407
171,6	22,962	2,8814	2,8512
172,3	22,997	2,8927	2,8625
173	23,131	2,9068	2,8766
173,7	22,908	2,9162	2,886
174,4	23,027	2,9278	2,8976
175,1	23,149	2,9415	2,9113
175,8	23,212	2,9539	2,9237
176,5	23,113	2,9644	2,9342
177,2	23,134	2,9747	2,9445
177,9	23,205	2,9873	2,9571
178,6	23,303	2,9994	2,9692
179,3	23,125	3,0095	2,9794
179,9	23,298	3,0218	2,9916
180,6	23,341	3,034	3,0038
181,3	23,43	3,0455	3,0153
182	23,316	3,0561	3,026
182,7	23,436	3,0688	3,0386
183,4	23,441	3,0802	3,05
184,1	23,453	3,0919	3,0617
184,8	23,484	3,1045	3,0743
185,5	23,57	3,1159	3,0857
186,2	23,571	3,1269	3,0968
186,9	23,508	3,1378	3,1077
187,6	23,659	3,1521	3,1219
188,3	23,595	3,1626	3,1324
189	23,542	3,1715	3,1413
189,7	23,635	3,185	3,1548
190,4	23,975	3,2025	3,1724
191,1	23,553	3,2064	3,1763
191,8	23,572	3,2178	3,1877
192,5	23,717	3,2318	3,2016
193,2	24,085	3,2493	3,2191
193,9	23,786	3,2562	3,226
194,6	23,681	3,2642	3,234
195,3	23,786	3,2773	3,2471
196	24,259	3,2967	3,2665
196,7	23,585	3,2969	3,2667
197,4	23,807	3,3111	3,2809
198,1	23,912	3,3241	3,294
198,8	24,18	3,3399	3,3097
199,5	23,987	3,3482	3,318
200,2	23,862	3,3574	3,3272
200,9	23,981	3,3708	3,3406
201,6	24,373	3,3885	3,3583
202,3	23,832	3,3908	3,3607
203	23,924	3,404	3,3738
203,7	24,017	3,4169	3,3867
204,4	24,363	3,4342	3,4041
205,1	23,917	3,4384	3,4082
205,8	23,988	3,4515	3,4213
206,5	24,048	3,4628	3,4326
207,1	24,186	3,4768	3,4466
207,8	24,043	3,4859	3,4557
208,5	24,143	3,4976	3,4674
209,2	24,202	3,5112	3,481
209,9	24,458	3,5253	3,4951
210,6	24,419	3,5367	3,5065
211,3	24,268	3,5445	3,5143
212	24,334	3,5574	3,5272
212,7	24,376	3,5691	3,5389
213,4	24,414	3,581	3,5509
214,1	24,451	3,5923	3,5622
214,8	24,504	3,6047	3,5745
215,5	24,372	3,6145	3,5843
216,2	24,533	3,6279	3,5978
216,9	24,531	3,6395	3,6093
217,6	24,457	3,6498	3,6196
218,3	24,468	3,6605	3,6303
219	24,66	3,6754	3,6452
219,7	24,631	3,686	3,6558
220,4	24,511	3,695	3,6649
221,1	24,518	3,7069	3,6768
221,8	24,768	3,7225	3,6924
222,5	24,667	3,7316	3,7014
223,2	24,57	3,7421	3,7119
223,9	24,677	3,7539	3,7237
224,6	25,078	3,7727	3,7425
225,3	24,426	3,7738	3,7436
226	24,667	3,7881	3,7579
226,7	24,818	3,801	3,7708
227,4	24,879	3,8133	3,7831
228,1	24,759	3,8228	3,7926
228,8	24,796	3,8342	3,804
229,5	24,871	3,8471	3,817
230,2	25,286	3,8654	3,8352
230,9	24,815	3,8695	3,8393
231,6	24,848	3,8811	3,8509
232,3	24,919	3,8939	3,8637
233	25,106	3,9089	3,8787
233,7	24,981	3,9176	3,8875
234,4	24,933	3,9279	3,8977
235	25	3,9405	3,9104
235,7	25,236	3,9559	3,9257
236,4	25,097	3,9643	3,9341
237,1	25,009	3,9746	3,9444
237,8	25,064	3,9867	3,9565
238,5	25,182	3,9994	3,9692
239,2	25,152	4,0113	3,9811
239,9	25,175	4,0215	3,9913
240,6	25,266	4,0343	4,0041
241,3	25,329	4,0458	4,0156
242	25,199	4,0563	4,0261
242,7	25,21	4,0675	4,0373
243,4	25,331	4,0805	4,0503
244,1	25,301	4,0915	4,0614
244,8	25,461	4,1065	4,0764
245,5	25,367	4,1156	4,0855
246,2	25,289	4,1261	4,0959
246,9	25,293	4,1382	4,108
247,6	25,426	4,1546	4,1244
248,3	24,954	4,1574	4,1273
249	25,074	4,1711	4,141
249,7	25,11	4,1841	4,154
250,4	24,903	4,1975	4,1673
251,1	24,989	4,2102	4,18
251,8	24,85	4,2187	4,1885
252,5	24,925	4,2302	4,2
253,2	25,092	4,2433	4,2131
253,9	25,128	4,2552	4,225
254,6	25,078	4,2651	4,2349
255,3	25,151	4,277	4,2468
256	25,59	4,295	4,2648
256,7	25,337	4,3013	4,2711
257,4	25,296	4,3116	4,2814
258,1	25,366	4,3231	4,2929
258,8	25,587	4,3374	4,3072
259,5	25,348	4,345	4,3148
260,2	25,413	4,3571	4,3269
260,9	25,629	4,3712	4,341
261,6	26,013	4,3887	4,3585
262,3	25,486	4,3923	4,3621
262,9	25,631	4,4049	4,3747
263,6	25,697	4,4172	4,387
264,3	25,806	4,4297	4,3995
265	25,621	4,4394	4,4092
265,7	25,728	4,4515	4,4213
266,4	25,788	4,4638	4,4336
267,1	25,95	4,4768	4,4466
267,8	25,757	4,4851	4,4549
268,5	25,795	4,4975	4,4673
269,2	25,943	4,5104	4,4803
269,9	25,987	4,5227	4,4925
270,6	25,979	4,5343	4,5042
271,3	25,979	4,5447	4,5146
272	26,018	4,5571	4,5269
272,7	26,081	4,5687	4,5385
273,4	26,019	4,5793	4,5491
274,1	26,047	4,5915	4,5613
274,8	26,153	4,6031	4,5729
275,5	26,087	4,6152	4,5851
276,2	26,254	4,63	4,5999
276,9	25,663	4,6312	4,601
277,6	26,057	4,649	4,6188
278,3	26,209	4,6626	4,6324
279	26,251	4,675	4,6448
279,7	26,201	4,6857	4,6555
280,4	26,134	4,6952	4,665
281,1	26,187	4,7069	4,6767
281,8	26,431	4,723	4,6928
282,5	26,263	4,7315	4,7013
283,2	26,174	4,7416	4,7115
283,9	26,276	4,7543	4,7241
284,6	26,51	4,771	4,7408
285,3	26,313	4,7771	4,7469
286	26,321	4,7886	4,7585
286,7	26,393	4,8006	4,7704
287,4	26,579	4,8149	4,7847
288,1	26,442	4,8241	4,7939
288,8	26,364	4,8336	4,8034
289,5	26,471	4,8476	4,8174
290,1	26,707	4,8637	4,8335
290,8	26,49	4,871	4,8408
291,5	26,348	4,8818	4,8516
292,2	26,447	4,8934	4,8632
292,9	26,513	4,9061	4,8759
293,6	26,436	4,9169	4,8867
294,3	26,477	4,928	4,8978
295	26,581	4,9405	4,9103
295,7	26,699	4,9546	4,9244
296,4	26,609	4,964	4,9338
297,1	26,548	4,9734	4,9432
297,8	26,673	4,9873	4,9571
298,5	26,709	4,9991	4,9689
299,2	26,818	5,0131	4,983
299,9	26,679	5,0218	4,9916
300,6	26,753	5,0338	5,0036
301,3	26,803	5,0453	5,0151
302	26,844	5,0579	5,0277
302,7	26,874	5,0685	5,0383
303,4	26,992	5,0813	5,0511
304,1	26,881	5,0917	5,0615
304,8	26,941	5,1048	5,0747
305,5	26,895	5,1146	5,0845
306,2	26,886	5,1261	5,0959
306,9	26,938	5,1381	5,1079
307,6	27,132	5,1543	5,1241
308,3	26,899	5,1613	5,1311
309	26,84	5,1716	5,1414
309,7	26,907	5,1838	5,1537
310,4	27,201	5,2016	5,1714
311,1	26,567	5,2017	5,1715
311,8	26,852	5,2173	5,1871
312,5	26,938	5,23	5,1999
313,2	27,49	5,2504	5,2202
313,9	26,808	5,2504	5,2202
314,6	26,954	5,2643	5,2341
315,3	27,02	5,277	5,2468
316	27,425	5,2944	5,2642
316,7	27,159	5,301	5,2708
317,4	27,028	5,3107	5,2806
318	27,173	5,3243	5,2941
318,7	27,579	5,343	5,3128
319,4	26,918	5,3431	5,3129
320,1	27,103	5,357	5,3269
320,8	27,148	5,3692	5,339
321,5	27,418	5,3856	5,3555
322,2	27,196	5,3936	5,3634
322,9	27,124	5,4034	5,3732
323,6	27,249	5,4168	5,3866
324,3	27,455	5,4313	5,4012
325	27,296	5,4409	5,4108
325,7	27,287	5,4516	5,4214
326,4	27,313	5,4628	5,4326
327,1	27,388	5,4755	5,4453
327,8	27,385	5,487	5,4568
328,5	27,412	5,4981	5,4679
329,2	27,456	5,5103	5,4801
329,9	27,517	5,5223	5,4921
330,6	27,505	5,5332	5,503
331,3	27,477	5,5454	5,5152
332	27,562	5,5564	5,5262
332,7	27,594	5,5685	5,5383
333,4	27,858	5,5848	5,5546
334,1	27,505	5,5895	5,5593
334,8	27,653	5,6038	5,5736
335,5	27,522	5,6139	5,5838
336,2	27,577	5,6258	5,5957
336,9	27,615	5,6384	5,6082
337,6	27,692	5,6497	5,6195
338,3	27,643	5,6608	5,6307
339	27,848	5,676	5,6458
339,7	27,714	5,6864	5,6563
340,4	27,597	5,6949	5,6648
341,1	27,611	5,7064	5,6762
341,8	27,792	5,7211	5,6909
342,5	27,734	5,7311	5,701
343,2	27,642	5,7405	5,7103
343,9	27,751	5,7535	5,7233
344,6	28,269	5,7744	5,7442
345,2	27,553	5,7745	5,7443
345,9	27,697	5,7871	5,7569
346,6	27,862	5,8008	5,7707
347,3	27,971	5,8139	5,7837
348	27,654	5,8223	5,7921
348,7	27,743	5,8341	5,8039
349,4	27,914	5,8473	5,8171
350,1	28,229	5,8648	5,8346
350,8	27,855	5,8702	5,84
351,5	27,785	5,8801	5,8499
352,2	27,865	5,8924	5,8622
352,9	27,984	5,9066	5,8764
353,6	27,789	5,9157	5,8855
354,3	27,898	5,9266	5,8964
355	27,971	5,9396	5,9095
355,7	28,088	5,9531	5,9229
356,4	28,106	5,9654	5,9353
357,1	27,936	5,9736	5,9434
357,8	28,108	5,9875	5,9574
358,5	28,087	5,9981	5,968
359,2	28,109	6,011	5,9809
359,9	28,107	6,0221	5,992
360,6	28,086	6,0323	6,0021
361,3	28,188	6,0451	6,0149
362	28,178	6,056	6,0259
362,7	28,267	6,0687	6,0385
363,4	28,242	6,0789	6,0487
364,1	28,245	6,0915	6,0614
364,8	28,45	6,1068	6,0766
365,5	28,316	6,1162	6,086
366,2	28,187	6,125	6,0948
366,9	28,225	6,1376	6,1074
367,6	28,254	6,1494	6,1192
368,3	28,12	6,1588	6,1286
369	28,185	6,1707	6,1405
369,7	28,354	6,1849	6,1547
370,4	28,604	6,2008	6,1706
371,1	28,456	6,2095	6,1793
371,8	28,209	6,2174	6,1872
372,5	28,338	6,2303	6,2001
373,1	28,555	6,2456	6,2154
373,8	28,468	6,2559	6,2257
374,5	28,272	6,2628	6,2326
375,2	28,449	6,2767	6,2465
375,9	28,78	6,2943	6,2641
376,6	28,486	6,3001	6,2699
377,3	28,376	6,3102	6,28
378	28,479	6,323	6,2928
378,7	28,952	6,3428	6,3127
379,4	28,28	6,3431	6,313
380,1	28,462	6,3568	6,3267
380,8	28,553	6,3709	6,3407
381,5	28,566	6,3826	6,3524
382,2	28,456	6,3925	6,3623
382,9	28,481	6,4039	6,3737
383,6	28,579	6,4169	6,3867
384,3	28,81	6,4318	6,4016
385	28,688	6,4414	6,4112
385,7	28,559	6,4514	6,4212
386,4	28,602	6,463	6,4328
387,1	28,673	6,4752	6,445
387,8	28,638	6,4865	6,4563
388,5	28,656	6,4975	6,4674
389,2	28,684	6,5098	6,4796
389,9	28,725	6,5214	6,4912
390,6	28,801	6,5348	6,5047
391,3	28,734	6,5441	6,5139
392	28,699	6,5559	6,5257
392,7	28,775	6,568	6,5378
393,4	29,082	6,5851	6,5549
394,1	28,562	6,587	6,5568
394,8	28,739	6,6014	6,5712
395,5	28,774	6,6129	6,5827
396,2	28,904	6,6278	6,5976
396,9	28,919	6,6387	6,6085
397,6	28,771	6,6483	6,6181
398,3	28,916	6,6604	6,6302
399	29,142	6,6772	6,647
399,7	28,957	6,6855	6,6553
400,4	28,771	6,6933	6,6631
401	28,865	6,7071	6,6769
401,7	29,085	6,722	6,6918
402,4	28,943	6,7306	6,7004
403,1	28,857	6,7402	6,71
403,8	28,947	6,7528	6,7226
404,5	29,222	6,7699	6,7398
405,2	29,085	6,7787	6,7485
405,9	28,852	6,7868	6,7566
406,6	28,92	6,7993	6,7691
407,3	29,139	6,8152	6,785
408	29,037	6,8248	6,7946
408,7	28,892	6,8337	6,8035
409,4	29,018	6,8472	6,817
410,1	29,071	6,8603	6,8301
410,8	28,795	6,8673	6,8371
411,5	28,951	6,8806	6,8505
412,2	28,966	6,8933	6,8631
412,9	29,237	6,9091	6,8789
413,6	28,885	6,9158	6,8856
414,3	28,933	6,9271	6,8969
415	28,995	6,9399	6,9097
415,7	29,007	6,9522	6,922
416,4	28,985	6,9646	6,9344
417,1	28,855	6,9743	6,9441
417,8	28,935	6,9871	6,9569
418,5	28,865	6,9982	6,968
419,2	28,789	7,0113	6,9811
419,9	28,521	7,0224	6,9922
420,6	28,18	7,033	7,0028
421,3	28,142	7,0446	7,0145
422	28,159	7,0564	7,0262
422,7	28,126	7,0678	7,0376
423,4	28,149	7,0793	7,0491
424,1	28,208	7,0905	7,0603
424,8	28,361	7,1042	7,074
425,5	28,337	7,1153	7,0851
426,2	28,311	7,1249	7,0948
426,9	28,456	7,1373	7,1072
427,6	28,717	7,1527	7,1226
428,2	28,54	7,1607	7,1306
428,9	28,545	7,1705	7,1403
429,6	28,639	7,1838	7,1536
430,3	29,001	7,2014	7,1712
431	28,58	7,2048	7,1747
431,7	28,626	7,2165	7,1863
432,4	28,702	7,2294	7,1992
433,1	29,215	7,2488	7,2187
433,8	28,626	7,2494	7,2192
434,5	28,796	7,2633	7,2331
435,2	28,948	7,2769	7,2467
435,9	29,115	7,2911	7,2609
436,6	28,841	7,2988	7,2686
437,3	28,935	7,3105	7,2803
438	28,96	7,3222	7,2921
438,7	29,522	7,3418	7,3117
439,4	28,867	7,3436	7,3134
440,1	29,011	7,357	7,3268
440,8	29,189	7,3699	7,3397
441,5	29,332	7,3845	7,3543
442,2	29,274	7,3938	7,3637
442,9	29,158	7,403	7,3729
443,6	29,299	7,4167	7,3865
444,3	29,335	7,4292	7,399
445	29,289	7,4397	7,4095
445,7	29,313	7,4507	7,4205
446,4	29,343	7,4626	7,4325
447,1	29,414	7,475	7,4448
447,8	29,285	7,4842	7,454
448,5	29,362	7,4966	7,4664
449,2	29,502	7,51	7,4798
449,9	29,523	7,5221	7,492
450,6	29,503	7,5336	7,5034
451,3	29,48	7,5443	7,5141
452	29,483	7,5558	7,5257
452,7	29,532	7,5681	7,5379
453,4	29,721	7,5829	7,5527
454,1	29,643	7,5924	7,5622
454,8	29,526	7,602	7,5718
455,5	29,61	7,6144	7,5842
456,1	29,75	7,6286	7,5984
456,8	29,642	7,6375	7,6073
457,5	29,555	7,6481	7,618
458,2	29,64	7,6611	7,6309
458,9	29,81	7,6758	7,6456
459,6	29,656	7,6853	7,6551
460,3	29,544	7,6936	7,6634
461	29,679	7,7076	7,6775
461,7	29,922	7,7238	7,6936
462,4	29,577	7,7295	7,6993
463,1	29,545	7,7406	7,7105
463,8	29,634	7,753	7,7229
464,5	29,799	7,7671	7,7369
465,2	29,738	7,7777	7,7475
465,9	29,623	7,7865	7,7564
466,6	29,711	7,7996	7,7694
467,3	29,878	7,8147	7,7845
468	29,549	7,82	7,7898
468,7	29,665	7,8336	7,8034
469,4	29,796	7,8465	7,8163
470,1	29,915	7,861	7,8308
470,8	29,812	7,8706	7,8404
471,5	29,711	7,8796	7,8494
472,2	29,74	7,8932	7,863
472,9	29,767	7,9055	7,8753
473,6	29,758	7,9163	7,8862
474,3	29,69	7,9267	7,8965
475	29,747	7,9392	7,909
475,7	29,848	7,9521	7,9219
476,4	29,727	7,9625	7,9323
477,1	29,744	7,973	7,9429
477,8	29,805	7,9862	7,9561
478,5	29,765	7,9971	7,9669
479,2	29,719	8,0079	7,9778
479,9	29,842	8,0203	7,9901
480,6	29,876	8,033	8,0028
481,3	29,914	8,045	8,0149
482	30,117	8,0609	8,0307
482,7	29,489	8,0607	8,0305
483,3	29,807	8,0787	8,0485
484	29,889	8,091	8,0608
484,7	30,007	8,1045	8,0743
485,4	29,915	8,1153	8,0851
486,1	29,788	8,1239	8,0937
486,8	29,832	8,1362	8,106
487,5	29,944	8,1507	8,1206
488,2	29,877	8,1611	8,131
488,9	29,74	8,1707	8,1405
489,6	29,886	8,1842	8,154
490,3	30,077	8,1999	8,1697
491	29,876	8,2065	8,1763
491,7	29,799	8,217	8,1868
492,4	29,799	8,2297	8,1996
493,1	29,852	8,2427	8,2126
493,8	29,826	8,2522	8,222
494,5	29,819	8,2625	8,2323
495,2	29,903	8,2762	8,246
495,9	30,054	8,2907	8,2606
496,6	29,955	8,3004	8,2702
497,3	29,92	8,3104	8,2802
498	29,928	8,3229	8,2927
498,7	30,158	8,3383	8,3081
499,4	29,817	8,3438	8,3136
500,1	29,891	8,3566	8,3265
500,8	30,014	8,3693	8,3391
501,5	30,023	8,3815	8,3513
502,2	29,941	8,3915	8,3614
502,9	29,933	8,4028	8,3726
503,6	30	8,4162	8,386
504,3	30,032	8,4281	8,3979
505	29,911	8,4386	8,4084
505,7	30,004	8,4505	8,4203
506,4	30,014	8,4629	8,4327
507,1	30,02	8,4758	8,4456
507,8	29,975	8,4859	8,4557
508,5	29,975	8,4973	8,4671
509,2	30,015	8,5091	8,4789
509,9	30,063	8,521	8,4908
510,6	30,105	8,5337	8,5035
511,2	30,098	8,5439	8,5137
511,9	30,079	8,556	8,5258
512,6	30,11	8,5674	8,5372
513,3	30,169	8,5805	8,5503
514	30,077	8,591	8,5608
514,7	30,084	8,6021	8,5719
515,4	30,136	8,6142	8,584
516,1	30,294	8,6286	8,5984
516,8	30,26	8,6392	8,6091
517,5	30,046	8,6481	8,6179
518,2	30,104	8,6603	8,6301
518,9	30,392	8,6771	8,6469
519,6	29,997	8,6812	8,651
520,3	30,006	8,6936	8,6634
521	30,017	8,7059	8,6757
521,7	30,389	8,7244	8,6942
522,4	29,912	8,7265	8,6964
523,1	29,997	8,7404	8,7102
523,8	30,101	8,7535	8,7233
524,5	30,415	8,7698	8,7397
525,2	30,176	8,7762	8,746
525,9	30,072	8,7863	8,7562
526,6	30,191	8,7999	8,7697
527,3	30,665	8,8197	8,7895
528	30,099	8,8209	8,7907
528,7	30,135	8,8328	8,8026
529,4	30,231	8,8461	8,8159
530,1	30,316	8,86	8,8299
530,8	30,109	8,8667	8,8365
531,5	30,234	8,8805	8,8503
532,2	30,254	8,892	8,8618
532,9	30,334	8,9048	8,8746
533,6	30,316	8,9167	8,8866
534,3	30,287	8,9269	8,8968
535	30,289	8,9395	8,9093
535,7	30,348	8,9515	8,9213
536,4	30,368	8,9634	8,9332
537,1	30,294	8,9744	8,9442
537,8	30,339	8,9864	8,9563
538,5	30,355	8,9979	8,9677
539,1	30,331	9,0088	8,9786
539,8	30,336	9,0209	8,9907
540,5	30,38	9,0331	9,0029
541,2	30,411	9,0446	9,0144
541,9	30,488	9,0572	9,027
542,6	30,469	9,0673	9,0371
543,3	30,439	9,0796	9,0494
544	30,429	9,0899	9,0597
544,7	30,74	9,1075	9,0773
545,4	30,154	9,1087	9,0785
546,1	30,399	9,1252	9,095
546,8	30,463	9,1369	9,1067
547,5	30,601	9,1518	9,1216
548,2	30,44	9,1609	9,1307
548,9	30,324	9,1694	9,1393
549,6	30,396	9,1827	9,1525
550,3	30,468	9,1959	9,1657
551	30,426	9,2056	9,1754
551,7	30,364	9,2166	9,1865
552,4	30,39	9,2286	9,1985
553,1	30,466	9,2418	9,2117
553,8	30,349	9,252	9,2219
554,5	30,387	9,2632	9,233
555,2	30,438	9,2752	9,245
555,9	30,886	9,2955	9,2653
556,6	30,295	9,2957	9,2656
557,3	30,33	9,3092	9,279
558	30,484	9,3228	9,2927
558,7	30,775	9,3396	9,3094
559,4	30,618	9,3473	9,3171
560,1	30,443	9,3556	9,3254
560,8	30,528	9,3692	9,339
561,5	30,579	9,3819	9,3517
562,2	30,558	9,3932	9,3631
562,9	30,509	9,4032	9,373
563,6	30,574	9,4163	9,3861
564,3	30,593	9,4281	9,3979
565	30,538	9,4392	9,409
565,7	30,555	9,4507	9,4205
566,3	30,524	9,4618	9,4316
567	30,613	9,4747	9,4445
567,7	30,659	9,4863	9,4562
568,4	30,655	9,4975	9,4673
569,1	30,649	9,5094	9,4792
569,8	30,687	9,5213	9,4912
570,5	30,647	9,5326	9,5024
571,2	30,625	9,5432	9,5131
571,9	30,659	9,5549	9,5247
572,6	30,693	9,5675	9,5373
573,3	30,967	9,5844	9,5542
574	30,408	9,5852	9,555
574,7	30,625	9,6015	9,5713
575,4	30,668	9,6137	9,5835
576,1	30,883	9,6294	9,5992
576,8	30,806	9,6387	9,6085
577,5	30,574	9,6467	9,6165
578,2	30,635	9,6592	9,6291
578,9	30,901	9,6761	9,6459
579,6	30,859	9,6855	9,6553
580,3	30,613	9,6922	9,6621
581	30,711	9,7065	9,6763
581,7	31,04	9,7244	9,6942
582,4	30,459	9,725	9,6948
583,1	30,628	9,7393	9,7091
583,8	30,694	9,7526	9,7224
584,5	30,775	9,7653	9,7351
585,2	30,654	9,775	9,7448
585,9	30,653	9,7857	9,7555
586,6	30,744	9,7987	9,7685
587,3	31,058	9,817	9,7868
588	30,808	9,823	9,7928
588,7	30,688	9,8322	9,802
589,4	30,787	9,846	9,8158
590,1	30,803	9,8579	9,8278
590,8	30,722	9,8693	9,8391
591,5	30,748	9,8802	9,85
592,2	30,725	9,8925	9,8624
592,9	30,782	9,9048	9,8746
593,6	30,651	9,9143	9,8842
594,2	30,714	9,9264	9,8962
594,9	30,723	9,939	9,9088
595,6	30,735	9,9509	9,9207
596,3	30,689	9,9614	9,9312
597	30,767	9,9732	9,943
597,7	30,724	9,9859	9,9557
598,4	30,768	9,9971	9,967
599,1	30,769	10,009	9,9785
599,8	30,889	10,023	9,9924
600,5	30,709	10,03	10
601,2	30,742	10,043	10,012
601,9	30,835	10,056	10,026
602,6	30,948	10,069	10,039
603,3	30,769	10,079	10,048
604	30,808	10,09	10,06
604,7	30,966	10,105	10,075
605,4	30,922	10,116	10,085
606,1	30,686	10,123	10,093
606,8	30,822	10,137	10,107
607,5	31,069	10,154	10,123
608,2	30,76	10,159	10,129
608,9	30,735	10,169	10,139
609,6	30,784	10,182	10,152
610,3	31,147	10,201	10,171
611	30,643	10,202	10,172
611,7	30,78	10,216	10,185
612,4	30,826	10,228	10,198
613,1	31,305	10,249	10,219
613,8	30,707	10,249	10,219
614,5	30,775	10,262	10,232
615,2	30,936	10,276	10,246
615,9	31,264	10,294	10,264
616,6	30,712	10,295	10,265
617,3	30,809	10,31	10,28
618	30,888	10,322	10,292
618,7	31,097	10,338	10,308
619,4	30,922	10,346	10,316
620,1	30,818	10,356	10,325
620,8	30,963	10,37	10,34
621,4	31,138	10,385	10,355
622,1	30,99	10,394	10,364
622,8	30,84	10,403	10,373
623,5	30,958	10,416	10,386
624,2	30,948	10,428	10,398
624,9	30,919	10,439	10,409
625,6	30,889	10,45	10,42
626,3	30,947	10,463	10,432
627	30,965	10,474	10,444
627,7	30,985	10,486	10,456
628,4	30,952	10,497	10,466
629,1	30,987	10,509	10,479
629,8	30,996	10,52	10,49
630,5	31,062	10,534	10,504
631,2	31,077	10,545	10,515
631,9	31,014	10,555	10,525
632,6	31,011	10,567	10,537
633,3	31,191	10,582	10,552
634	31,065	10,591	10,56
634,7	30,94	10,6	10,57
635,4	31,008	10,613	10,583
636,1	31,295	10,63	10,6
636,8	31,223	10,641	10,61
637,5	30,941	10,646	10,616
638,2	30,947	10,659	10,629
638,9	31,322	10,677	10,647
639,6	30,901	10,68	10,65
640,3	30,925	10,692	10,661
641	30,992	10,706	10,676
641,7	31,291	10,723	10,693
642,4	31,064	10,73	10,699
643,1	30,945	10,739	10,709
643,8	30,985	10,752	10,722
644,5	31,275	10,768	10,738
645,2	31,138	10,779	10,749
645,9	30,976	10,786	10,755
646,6	31,065	10,799	10,769
647,3	31,346	10,816	10,786
648	31,049	10,822	10,792
648,7	30,967	10,832	10,802
649,3	31,089	10,846	10,815
650	31,084	10,858	10,828
650,7	31,051	10,868	10,838
651,4	31,061	10,879	10,849
652,1	31,1	10,892	10,862
652,8	31,413	10,91	10,88
653,5	31,002	10,913	10,883
654,2	31,051	10,926	10,896
654,9	31,1	10,939	10,909
655,6	31,125	10,951	10,921
656,3	31,219	10,965	10,934
657	31,112	10,973	10,943
657,7	31,143	10,986	10,956
658,4	31,158	10,997	10,967
659,1	31,333	11,012	10,982
659,8	30,865	11,014	10,984
660,5	31,104	11,031	11,001
661,2	31,108	11,043	11,013
661,9	31,245	11,057	11,027
662,6	31,258	11,069	11,039
663,3	31,133	11,078	11,047
664	31,122	11,089	11,059
664,7	31,282	11,103	11,073
665,4	31,175	11,113	11,083
666,1	31,075	11,123	11,093
666,8	31,12	11,135	11,105
667,5	31,472	11,154	11,124
668,2	30,973	11,156	11,126
668,9	31,083	11,17	11,14
669,6	31,128	11,182	11,152
670,3	31,548	11,202	11,172
671	31,007	11,203	11,172
671,7	31,038	11,216	11,185
672,4	31,144	11,229	11,199
673,1	31,185	11,242	11,211
673,8	31,123	11,251	11,221
674,5	31,1	11,262	11,232
675,2	31,173	11,276	11,245
675,9	31,421	11,292	11,262
676,6	31,125	11,297	11,266
677,2	31,178	11,309	11,279
677,9	31,204	11,322	11,292
678,6	31,632	11,342	11,312
679,3	31,07	11,343	11,313
680	31,206	11,356	11,326
680,7	31,271	11,369	11,338
681,4	31,312	11,381	11,351
682,1	31,26	11,392	11,362
682,8	31,226	11,403	11,373
683,5	31,216	11,415	11,385
684,2	31,248	11,428	11,398
684,9	31,23	11,44	11,41
685,6	31,191	11,451	11,421
686,3	31,204	11,461	11,431
687	31,239	11,475	11,445
687,7	31,146	11,485	11,455
688,4	31,317	11,499	11,468
689,1	31,167	11,508	11,478
689,8	31,23	11,52	11,49
690,5	31,388	11,535	11,505
691,2	31,322	11,545	11,514
691,9	31,247	11,554	11,524
692,6	31,294	11,567	11,536
693,3	31,375	11,58	11,549
694	31,353	11,592	11,562
694,7	31,184	11,599	11,569
695,4	31,262	11,612	11,582
696,1	31,362	11,626	11,596
696,8	31,345	11,639	11,609
697,5	31,204	11,647	11,617
698,2	31,237	11,659	11,628
698,9	31,32	11,672	11,642
699,6	31,333	11,684	11,654
700,3	31,204	11,693	11,663
701	31,231	11,705	11,675
701,7	31,527	11,723	11,693
702,4	31,25	11,729	11,699
703,1	31,186	11,739	11,709
703,8	31,204	11,752	11,721
704,4	31,376	11,765	11,735
705,1	31,288	11,775	11,745
705,8	31,303	11,786	11,756
706,5	31,388	11,799	11,769
707,2	31,436	11,811	11,781
707,9	31,301	11,82	11,79
708,6	31,327	11,833	11,803
709,3	31,407	11,845	11,815
710	31,442	11,858	11,827
710,7	31,375	11,868	11,838
711,4	31,401	11,879	11,849
712,1	31,43	11,892	11,862
712,8	31,515	11,905	11,875
713,5	31,444	11,915	11,885
714,2	31,355	11,926	11,896
714,9	31,425	11,938	11,908
715,6	31,415	11,95	11,92
716,3	31,496	11,964	11,934
717	31,23	11,97	11,94
717,7	31,409	11,986	11,955
718,4	31,409	11,997	11,967
719,1	31,391	12,008	11,978
719,8	31,422	12,02	11,99
720,5	31,345	12,031	12
721,2	31,36	12,042	12,012
721,9	31,538	12,057	12,027
722,6	31,523	12,069	12,039
723,3	31,313	12,076	12,046
724	31,368	12,089	12,058
724,7	31,755	12,108	12,078
725,4	31,199	12,108	12,078
726,1	31,31	12,122	12,092
726,8	31,382	12,135	12,105
727,5	31,686	12,154	12,124
728,2	31,143	12,154	12,124
728,9	31,325	12,169	12,139
729,6	31,396	12,183	12,153
730,3	31,499	12,196	12,166
731	31,427	12,206	12,176
731,7	31,314	12,216	12,185
732,3	31,388	12,229	12,198
733	31,562	12,244	12,214
733,7	31,419	12,252	12,222
734,4	31,331	12,262	12,232
735,1	31,412	12,275	12,245
735,8	31,587	12,291	12,261
736,5	31,409	12,298	12,268
737,2	31,464	12,31	12,279
737,9	31,448	12,322	12,291
738,6	31,532	12,334	12,304
739,3	31,527	12,345	12,315
740	31,586	12,357	12,327
740,7	31,467	12,369	12,338
741,4	31,473	12,379	12,349
742,1	31,508	12,392	12,362
742,8	31,521	12,403	12,372
743,5	31,558	12,416	12,386
744,2	31,542	12,427	12,397
744,9	31,649	12,442	12,412
745,6	31,182	12,443	12,413
746,3	31,517	12,462	12,432
747	31,534	12,473	12,443
747,7	31,587	12,486	12,456
748,4	31,571	12,496	12,466
749,1	31,604	12,51	12,48
749,8	31,609	12,52	12,49
750,5	31,738	12,534	12,504
751,2	31,671	12,544	12,514
751,9	31,593	12,555	12,525
752,6	31,665	12,566	12,536
753,3	31,69	12,578	12,548
754	31,626	12,59	12,56
754,7	31,573	12,599	12,568
755,4	31,644	12,612	12,582
756,1	31,829	12,628	12,598
756,8	31,707	12,638	12,607
757,5	31,559	12,645	12,615
758,2	31,598	12,659	12,629
758,9	31,64	12,671	12,641
759,5	31,574	12,681	12,651
760,2	31,566	12,692	12,662
760,9	31,571	12,705	12,675
761,6	31,863	12,723	12,692
762,3	31,607	12,729	12,698
763	31,572	12,739	12,709
763,7	31,622	12,752	12,721
764,4	31,793	12,768	12,737
765,1	31,676	12,776	12,746
765,8	31,551	12,785	12,754
766,5	31,618	12,799	12,769
767,2	31,888	12,815	12,785
767,9	31,76	12,823	12,793
768,6	31,543	12,831	12,801
769,3	31,689	12,845	12,815
770	31,727	12,858	12,828
770,7	31,612	12,867	12,837
771,4	31,687	12,879	12,849
772,1	31,684	12,891	12,861
772,8	31,741	12,904	12,873
773,5	31,726	12,915	12,885
774,2	31,743	12,926	12,896
774,9	31,745	12,938	12,908
775,6	31,703	12,949	12,918
776,3	31,849	12,963	12,933
777	31,726	12,972	12,942
777,7	31,769	12,984	12,954
778,4	31,798	12,997	12,967
779,1	31,908	13,011	12,981
779,8	31,857	13,021	12,991
780,5	31,774	13,032	13,001
781,2	31,787	13,043	13,013
781,9	31,892	13,056	13,026
782,6	31,895	13,068	13,037
783,3	31,762	13,076	13,046
784	31,816	13,089	13,058
784,7	32,043	13,105	13,075
785,4	31,898	13,114	13,084
786,1	31,775	13,123	13,093
786,8	31,82	13,135	13,105
787,4	32,091	13,152	13,122
788,1	31,877	13,159	13,129
788,8	31,76	13,168	13,138
789,5	31,876	13,182	13,152
790,2	32,079	13,198	13,168
790,9	31,912	13,207	13,176
791,6	31,739	13,215	13,185
792,3	31,796	13,228	13,198
793	32,124	13,246	13,216
793,7	31,846	13,252	13,222
794,4	31,766	13,262	13,232
795,1	31,837	13,275	13,244
795,8	31,984	13,29	13,26
796,5	31,873	13,299	13,268
797,2	31,834	13,309	13,279
797,9	31,886	13,321	13,291
798,6	32,121	13,338	13,308
799,3	31,975	13,347	13,316
800	31,84	13,355	13,325
800,7	31,926	13,368	13,338
801,4	31,96	13,38	13,35
802,1	31,931	13,391	13,36
802,8	31,935	13,402	13,372
803,5	31,948	13,415	13,385
804,2	32	13,427	13,396
804,9	31,94	13,437	13,407
805,6	31,999	13,45	13,42
806,3	31,937	13,461	13,431
807	31,975	13,473	13,443
807,7	32,156	13,489	13,458
808,4	32,098	13,498	13,468
809,1	31,996	13,508	13,478
809,8	31,963	13,518	13,488
810,5	32,178	13,534	13,504
811,2	32,013	13,542	13,512
811,9	31,96	13,553	13,522
812,6	32,046	13,565	13,535
813,3	32,217	13,581	13,551
814	32,114	13,591	13,56
814,7	32,008	13,599	13,569
815,3	32,068	13,611	13,581
816	32,249	13,627	13,597
816,7	32,125	13,637	13,606
817,4	31,969	13,645	13,615
818,1	32,026	13,658	13,628
818,8	32,414	13,677	13,647
819,5	31,912	13,678	13,648
820,2	32,01	13,691	13,661
820,9	32,043	13,705	13,674
821,6	32,473	13,725	13,695
822,3	31,94	13,726	13,696
823	32,007	13,738	13,708
823,7	32,108	13,751	13,721
824,4	32,264	13,767	13,737
825,1	32,153	13,776	13,745
825,8	32,069	13,785	13,755
826,5	32,174	13,798	13,768
827,2	32,28	13,812	13,782
827,9	32,223	13,823	13,793
828,6	32,102	13,832	13,801
829,3	32,198	13,845	13,815
830	32,197	13,857	13,827
830,7	32,206	13,868	13,838
831,4	32,207	13,88	13,849
832,1	32,216	13,891	13,861
832,8	32,256	13,904	13,874
833,5	32,142	13,913	13,883
834,2	32,222	13,925	13,895
834,9	32,248	13,938	13,908
835,6	32,228	13,949	13,919
836,3	32,261	13,961	13,931
837	32,261	13,972	13,942
837,7	32,207	13,984	13,954
838,4	32,228	13,996	13,965
839,1	32,356	14,01	13,98
839,8	32,261	14,02	13,99
840,5	32,185	14,029	13,999
841,2	32,285	14,043	14,012
841,9	32,551	14,06	14,029
842,5	32,205	14,064	14,034
843,2	32,208	14,076	14,045
843,9	32,216	14,088	14,058
844,6	32,462	14,103	14,073
845,3	32,386	14,113	14,083
846	32,235	14,121	14,091
846,7	32,357	14,136	14,106
847,4	32,659	14,154	14,123
848,1	32,222	14,157	14,126
848,8	32,228	14,168	14,138
849,5	32,279	14,181	14,151
850,2	32,661	14,201	14,171
850,9	32,148	14,201	14,171
851,6	32,179	14,214	14,184
852,3	32,254	14,227	14,197
853	32,471	14,243	14,213
853,7	32,162	14,249	14,219
854,4	32,284	14,261	14,231
855,1	32,336	14,274	14,244
855,8	32,55	14,29	14,26
856,5	32,293	14,295	14,265
857,2	32,337	14,308	14,278
857,9	32,433	14,321	14,291
858,6	32,5	14,335	14,305
859,3	32,377	14,343	14,313
860	32,411	14,355	14,325
860,7	32,486	14,368	14,338
861,4	32,574	14,381	14,35
862,1	32,492	14,391	14,361
862,8	32,467	14,402	14,371
863,5	32,587	14,416	14,385
864,2	32,485	14,427	14,397
864,9	32,567	14,439	14,409
865,6	32,543	14,449	14,419
866,3	32,509	14,461	14,431
867	32,504	14,474	14,443
867,7	32,67	14,487	14,457
868,4	32,51	14,496	14,466
869,1	32,478	14,508	14,477
869,8	32,494	14,519	14,489
870,4	32,604	14,532	14,502
871,1	32,56	14,544	14,514
871,8	32,493	14,552	14,522
872,5	32,584	14,565	14,535
873,2	32,865	14,583	14,553
873,9	32,43	14,586	14,556
874,6	32,474	14,598	14,568
875,3	32,569	14,612	14,582
876	32,783	14,628	14,598
876,7	32,632	14,636	14,606
877,4	32,529	14,644	14,614
878,1	32,583	14,658	14,628
878,8	32,659	14,671	14,641
879,5	32,531	14,68	14,65
880,2	32,521	14,691	14,661
880,9	32,628	14,705	14,675
881,6	32,871	14,722	14,692
882,3	32,469	14,725	14,695
883	32,563	14,738	14,708
883,7	32,603	14,751	14,721
884,4	32,833	14,767	14,737
885,1	32,71	14,776	14,746
885,8	32,584	14,785	14,755
886,5	32,649	14,797	14,767
887,2	32,718	14,81	14,78
887,9	32,69	14,821	14,791
888,6	32,697	14,831	14,801
889,3	32,729	14,844	14,814
890	32,742	14,857	14,826
890,7	32,675	14,868	14,837
891,4	32,684	14,879	14,849
892,1	32,682	14,891	14,861
892,8	32,789	14,904	14,874
893,5	32,682	14,914	14,884
894,2	32,737	14,926	14,896
894,9	32,744	14,939	14,909
895,6	32,745	14,95	14,92
896,3	32,796	14,964	14,934
897	32,693	14,972	14,942
897,6	32,73	14,985	14,955
898,3	32,725	14,996	14,966
899	32,86	15,01	14,98
899,7	32,711	15,02	14,99
900,4	32,7	15,03	15
901,1	32,692	15,041	15,011
901,8	32,769	15,054	15,024
902,5	32,835	15,067	15,037
903,2	32,663	15,076	15,046
903,9	32,697	15,087	15,057
904,6	32,85	15,102	15,072
905,3	32,79	15,114	15,084
906	32,649	15,122	15,092
906,7	32,68	15,134	15,104
907,4	33,184	15,157	15,126
908,1	32,66	15,157	15,127
908,8	32,754	15,17	15,139
909,5	32,748	15,182	15,152
910,2	32,844	15,195	15,165
910,9	32,655	15,202	15,172
911,6	32,747	15,215	15,185
912,3	32,768	15,228	15,198
913	32,991	15,244	15,214
913,7	32,697	15,249	15,218
914,4	32,768	15,262	15,232
915,1	32,888	15,275	15,245
915,8	32,964	15,287	15,257
916,5	32,803	15,295	15,265
917,2	32,89	15,309	15,278
917,9	32,943	15,321	15,291
918,6	32,971	15,333	15,303
919,3	32,926	15,344	15,314
920	32,963	15,355	15,325
920,7	33,05	15,369	15,339
921,4	32,963	15,38	15,35
922,1	33,054	15,393	15,363
922,8	32,938	15,402	15,372
923,5	33,008	15,415	15,385
924,2	32,952	15,426	15,395
924,9	32,997	15,438	15,408
925,5	32,988	15,449	15,419
926,2	32,951	15,46	15,43
926,9	32,909	15,471	15,441
927,6	33,067	15,487	15,456
928,3	32,994	15,497	15,466
929	32,902	15,507	15,477
929,7	32,983	15,519	15,488
930,4	33,172	15,534	15,504
931,1	32,971	15,542	15,512
931,8	32,884	15,552	15,522
932,5	32,961	15,565	15,534
933,2	33,268	15,584	15,553
933,9	32,743	15,584	15,554
934,6	32,9	15,598	15,568
935,3	32,931	15,611	15,581
936	33,043	15,625	15,595
936,7	32,995	15,635	15,605
937,4	32,95	15,646	15,616
938,1	32,972	15,658	15,628
938,8	33,149	15,673	15,643
939,5	33,027	15,682	15,651
940,2	32,931	15,691	15,661
940,9	32,978	15,704	15,674
941,6	33,326	15,722	15,692
942,3	33,076	15,729	15,698
943	33,02	15,738	15,708
943,7	33,086	15,751	15,72
944,4	33,156	15,764	15,734
945,1	33,093	15,773	15,743
945,8	33,123	15,785	15,755
946,5	33,181	15,798	15,768
947,2	33,249	15,811	15,781
947,9	33,197	15,821	15,79
948,6	33,176	15,831	15,801
949,3	33,319	15,846	15,816
950	33,24	15,857	15,826
950,7	33,331	15,87	15,84
951,4	33,204	15,88	15,85
952,1	33,218	15,892	15,861
952,7	33,2	15,902	15,872
953,4	33,13	15,912	15,882
954,1	33,145	15,925	15,895
954,8	33,273	15,939	15,909
955,5	33,224	15,949	15,919
956,2	33,325	15,963	15,933
956,9	33,273	15,973	15,943
957,6	33,22	15,984	15,954
958,3	33,23	15,995	15,965
959	33,333	16,01	15,98
959,7	33,309	16,019	15,989
960,4	33,208	16,028	15,998
961,1	33,3	16,042	16,011
961,8	33,521	16,058	16,027
962,5	33,427	16,067	16,037
963,2	33,273	16,076	16,045
963,9	33,33	16,089	16,058
964,6	33,459	16,102	16,072
965,3	33,331	16,111	16,081
966	33,271	16,122	16,091
966,7	33,327	16,134	16,104
967,4	33,673	16,153	16,123
968,1	33,199	16,153	16,123
968,8	33,311	16,168	16,138
969,5	33,382	16,181	16,151
970,2	33,675	16,2	16,169
970,9	33,182	16,2	16,17
971,6	33,322	16,214	16,184
972,3	33,38	16,228	16,198
973	33,429	16,242	16,211
973,7	33,384	16,25	16,219
974,4	33,308	16,261	16,231
975,1	33,433	16,274	16,244
975,8	33,491	16,287	16,257
976,5	33,487	16,298	16,268
977,2	33,466	16,309	16,279
977,9	33,438	16,321	16,291
978,6	33,505	16,333	16,303
979,3	33,571	16,346	16,316
980	33,536	16,356	16,326
980,6	33,502	16,368	16,338
981,3	33,524	16,38	16,349
982	33,559	16,391	16,361
982,7	33,535	16,402	16,372
983,4	33,516	16,414	16,384
984,1	33,5	16,425	16,395
984,8	33,648	16,441	16,41
985,5	33,343	16,445	16,415
986,2	33,5	16,46	16,43
986,9	33,46	16,471	16,441
987,6	33,744	16,488	16,458
988,3	33,537	16,497	16,467
989	33,546	16,507	16,477
989,7	33,492	16,518	16,488
990,4	33,635	16,532	16,502
991,1	33,65	16,543	16,513
991,8	33,544	16,553	16,522
992,5	33,547	16,564	16,534
993,2	33,769	16,58	16,55
993,9	33,619	16,589	16,559
994,6	33,506	16,598	16,568
995,3	33,617	16,612	16,582
996	33,837	16,628	16,598
996,7	33,645	16,635	16,605
997,4	33,546	16,644	16,614
998,1	33,63	16,658	16,628
998,8	33,953	16,677	16,647
999,5	33,45	16,678	16,648
1000	33,537	16,691	16,661
1001	33,62	16,704	16,674
1002	33,68	16,717	16,687
1002	33,553	16,726	16,695
1003	33,583	16,738	16,707
1004	33,64	16,751	16,721
1004	33,671	16,763	16,733
1005	33,561	16,772	16,742
1006	33,613	16,784	16,753
1006	33,646	16,797	16,767
1007	33,754	16,81	16,78
1008	33,726	16,821	16,791
1009	33,642	16,831	16,8
1009	33,761	16,844	16,814
1010	33,776	16,857	16,826
1011	33,851	16,87	16,84
1011	33,803	16,88	16,85
1012	33,726	16,89	16,86
1013	33,754	16,902	16,872
1013	33,924	16,917	16,887
1014	33,919	16,927	16,897
1015	33,751	16,937	16,906
1016	33,816	16,949	16,919
1016	33,932	16,963	16,933
1017	33,87	16,972	16,942
1018	33,733	16,982	16,952
1018	33,733	16,994	16,964
1019	33,933	17,009	16,979
1020	33,831	17,018	16,988
1020	33,773	17,028	16,997
1021	33,884	17,043	17,012
1022	34,136	17,059	17,029
1022	33,653	17,06	17,03
1023	33,819	17,075	17,045
1024	33,861	17,087	17,057
1025	34,105	17,104	17,074
1025	33,988	17,112	17,082
1026	33,82	17,12	17,09
1027	33,924	17,135	17,104
1027	34,165	17,152	17,121
1028	33,846	17,156	17,126
1029	33,816	17,167	17,137
1029	33,782	17,18	17,15
1030	34,129	17,2	17,17
1031	33,613	17,202	17,172
1032	33,606	17,214	17,184
1032	33,462	17,227	17,197
1033	11,391	17,245	17,214
1034	-0,033145	17,248	17,218
1034	-0,037944	17,26	17,23
1035	-0,042743	17,274	17,244
1036	-0,048209	17,286	17,256
1036	-0,038345	17,298	17,268
1037	-0,040726	17,309	17,279
1038	-0,039338	17,321	17,29
1039	-0,043922	17,333	17,302
1039		17,345	17,315