File: Tests de traction/Fichiers source/04_07_2016/Sample_11_250N.txt
Time (s)	Load (N)	Machine Extension (mm)	Extension from Preload (mm)
0
0,4275	0,59813	0,017814	0,00051495
0,855	0,54096	0,019392	0,0020929
1,283	0,95355	0,032483	0,015184
1,71	1,0948	0,039228	0,021929
2,138	1,2834	0,043934	0,026635
2,565	1,4968	0,052764	0,035464
2,993	1,6862	0,058867	0,041568
3,42	2,3227	0,077358	0,060059
3,848	2,2559	0,076115	0,058816
4,275	2,189	0,076295	0,058996
4,703	2,5558	0,087692	0,070392
5,13	2,7043	0,094125	0,076826
5,558	2,9796	0,1024	0,085097
5,985	3,1517	0,10927	0,091967
6,413	3,6681	0,12455	0,10725
6,84	3,5901	0,12457	0,10727
7,268	3,6042	0,12669	0,10939
7,695	3,9043	0,13639	0,11909
8,123	4,0935	0,14522	0,12792
8,55	4,2865	0,15125	0,13395
8,978	4,5231	0,16019	0,14289
9,405	4,8791	0,17229	0,15499
9,833	4,7903	0,17229	0,15499
10,26	5,0638	0,18156	0,16426
10,69	5,1487	0,18707	0,16977
11,12	5,3591	0,19504	0,17774
11,54	5,4998	0,20179	0,18449
11,97	5,7076	0,20968	0,19238
12,4	5,9676	0,22014	0,20284
12,83	5,8797	0,2204	0,2031
13,25	6,1718	0,23047	0,21317
13,68	6,2695	0,23566	0,21836
14,11	6,421	0,24495	0,22765
14,54	6,5669	0,25193	0,23463
14,96	7,0574	0,26941	0,25211
15,39	6,9295	0,26948	0,25218
15,82	6,8329	0,26954	0,25225
16,25	7,1208	0,2795	0,2622
16,67	7,2391	0,28658	0,26929
17,1	7,4288	0,29508	0,27779
17,53	7,5565	0,30235	0,28506
17,96	7,9387	0,31818	0,30088
18,38	7,7523	0,3171	0,2998
18,81	7,6749	0,31725	0,29996
19,24	7,9439	0,32885	0,31155
19,67	8,0546	0,33773	0,32043
20,09	8,1559	0,34459	0,32729
20,52	8,3536	0,35343	0,33614
20,95	8,4409	0,36216	0,34486
21,38	8,3043	0,36212	0,34482
21,8	8,5368	0,37264	0,35534
22,23	8,5853	0,37977	0,36247
22,66	8,6409	0,38709	0,36979
23,09	8,6889	0,39436	0,37706
23,51	8,955	0,40943	0,39213
23,94	8,6982	0,40955	0,39225
24,37	8,7703	0,41527	0,39797
24,8	8,7536	0,42206	0,40476
25,22	8,8362	0,42943	0,41214
25,65	8,9048	0,43794	0,42064
26,08	8,9734	0,44535	0,42805
26,51	9,1857	0,45692	0,43962
26,93	8,9869	0,4571	0,4398
27,36	9,1859	0,46719	0,44989
27,79	9,172	0,47085	0,45355
28,22	9,2751	0,48031	0,46301
28,64	9,2797	0,48661	0,46931
29,07	9,4484	0,49964	0,48234
29,5	9,1811	0,50181	0,48451
29,93	9,0098	0,50951	0,49221
30,35	8,9058	0,51523	0,49793
30,78	8,9342	0,52194	0,50464
31,21	9,0057	0,52907	0,51178
31,64	9,1319	0,5379	0,5206
32,06	9,313	0,54905	0,53175
32,49	9,1373	0,54925	0,53195
32,92	9,2681	0,5589	0,54161
33,35	9,2604	0,56429	0,54699
33,77	9,3992	0,57226	0,55496
34,2	9,4197	0,57876	0,56146
34,63	9,5468	0,58776	0,57046
35,06	9,6607	0,59674	0,57944
35,48	9,62	0,60154	0,58424
35,91	9,6432	0,60852	0,59122
36,34	9,6879	0,61381	0,59651
36,77	9,7514	0,6227	0,6054
37,19	9,7997	0,62949	0,61219
37,62	9,9666	0,63948	0,62218
38,05	9,9633	0,64586	0,62856
38,48	9,9148	0,65065	0,63335
38,9	9,9738	0,65816	0,64086
39,33	9,9989	0,66409	0,64679
39,76	10,082	0,67272	0,65542
40,19	10,144	0,67993	0,66263
40,61	10,289	0,69049	0,67319
41,04	10,2	0,69366	0,67636
41,47	10,3	0,70225	0,68495
41,9	10,265	0,70665	0,68935
42,32	10,322	0,71465	0,69735
42,75	10,355	0,7211	0,7038
43,18	10,425	0,72984	0,71254
43,61	10,675	0,74359	0,72629
44,03	10,423	0,74367	0,72637
44,46	10,453	0,74959	0,73229
44,89	10,483	0,75671	0,73941
45,32	10,493	0,76454	0,74725
45,74	10,528	0,77225	0,75495
46,17	10,484	0,77868	0,76138
46,6	10,612	0,79293	0,77563
47,03	10,369	0,79218	0,77488
47,45	10,368	0,79764	0,78034
47,88	10,474	0,80658	0,78928
48,31	10,607	0,81479	0,79749
48,74	10,655	0,8223	0,805
49,16	10,829	0,83316	0,81586
49,59	10,752	0,83794	0,82064
50,02	10,674	0,8416	0,8243
50,45	10,759	0,85001	0,83271
50,87	10,768	0,85665	0,83935
51,3	10,89	0,86504	0,84775
51,73	10,917	0,87262	0,85532
52,16	11,041	0,88285	0,86555
52,58	11,023	0,88823	0,87093
53,01	11	0,89456	0,87726
53,44	10,958	0,89994	0,88265
53,87	11,091	0,90776	0,89046
54,29	11,051	0,91369	0,89639
54,72	11,156	0,92281	0,90551
55,15	11,194	0,9306	0,91331
55,58	11,173	0,93612	0,91882
56	11,091	0,94268	0,92538
56,43	11,159	0,94861	0,93131
56,86	11,274	0,9579	0,9406
57,29	11,247	0,96467	0,94737
57,71	11,409	0,97514	0,95784
58,14	11,335	0,9792	0,96191
58,57	11,421	0,98843	0,97113
59	11,351	0,99132	0,97402
59,42	11,392	0,99843	0,98113
59,85	11,448	1,0065	0,98924
60,28	11,487	1,0145	0,9972
60,71	11,785	1,0296	1,0123
61,13	11,501	1,0297	1,0124
61,56	11,315	1,0298	1,0125
61,99	11,55	1,042	1,0247
62,42	11,568	1,05	1,0327
62,84	11,622	1,0567	1,0394
63,27	11,805	1,0678	1,0505
63,7	11,708	1,0723	1,055
64,13	11,726	1,0787	1,0614
64,55	11,81	1,0868	1,0695
64,98	11,742	1,0907	1,0734
65,41	11,814	1,0996	1,0823
65,84	11,849	1,1075	1,0902
66,26	11,994	1,1179	1,1006
66,69	11,854	1,1208	1,1035
67,12	11,909	1,1283	1,111
67,55	11,909	1,1346	1,1173
67,97	11,948	1,1416	1,1243
68,4	11,968	1,1485	1,1312
68,83	12,045	1,1575	1,1402
69,26	12,274	1,1703	1,153
69,68	12,021	1,1714	1,1541
70,11	12,076	1,179	1,1617
70,54	12,044	1,1838	1,1665
70,97	12,119	1,1927	1,1754
71,39	12,101	1,1989	1,1816
71,82	12,212	1,2078	1,1905
72,25	12,258	1,2163	1,199
72,68	12,288	1,2231	1,2058
73,1	12,212	1,2281	1,2108
73,53	12,199	1,2343	1,217
73,96	12,315	1,2423	1,225
74,39	12,306	1,2491	1,2318
74,81	12,382	1,258	1,2407
75,24	12,413	1,2653	1,248
75,67	12,477	1,2733	1,256
76,1	12,376	1,2775	1,2602
76,52	12,385	1,284	1,2667
76,95	12,465	1,2916	1,2743
77,38	12,51	1,2998	1,2825
77,81	12,783	1,3129	1,2956
78,23	12,569	1,315	1,2977
78,66	12,455	1,3185	1,3012
79,09	12,613	1,3271	1,3098
79,52	12,58	1,3346	1,3173
79,94	12,614	1,3419	1,3246
80,37	12,636	1,3487	1,3314
80,8	12,888	1,3626	1,3453
81,23	12,59	1,3627	1,3454
81,65	12,814	1,3724	1,3551
82,08	12,661	1,377	1,3597
82,51	12,77	1,3853	1,368
82,94	12,765	1,3917	1,3744
83,36	12,843	1,3996	1,3823
83,79	12,953	1,4097	1,3924
84,22	12,698	1,4098	1,3925
84,65	12,878	1,4206	1,4033
85,07	12,82	1,4261	1,4088
85,5	12,954	1,4351	1,4178
85,93	12,982	1,4424	1,4251
86,36	13,066	1,4512	1,4339
86,78	13,046	1,4578	1,4405
87,21	12,873	1,4597	1,4424
87,64	12,974	1,4689	1,4516
88,07	13,067	1,4778	1,4605
88,49	13,034	1,4835	1,4662
88,92	13,136	1,4923	1,475
89,35	13,255	1,5023	1,485
89,78	13,094	1,5051	1,4878
90,2	13,17	1,5128	1,4955
90,63	13,156	1,5192	1,5019
91,06	13,297	1,5288	1,5115
91,49	13,238	1,5337	1,5164
91,91	13,541	1,5474	1,5301
92,34	13,355	1,5503	1,533
92,77	13,155	1,5521	1,5348
93,2	13,345	1,562	1,5447
93,62	13,339	1,5688	1,5515
94,05	13,443	1,5775	1,5602
94,48	13,468	1,5845	1,5672
94,91	13,709	1,5981	1,5808
95,33	13,535	1,6004	1,5831
95,76	13,341	1,6017	1,5844
96,19	13,515	1,6124	1,5951
96,62	13,535	1,6195	1,6022
97,04	13,593	1,6272	1,6099
97,47	13,677	1,6357	1,6184
97,9	13,965	1,6496	1,6323
98,33	13,678	1,6496	1,6323
98,75	13,687	1,656	1,6387
99,18	13,686	1,6609	1,6437
99,61	13,757	1,6704	1,6531
100	13,794	1,677	1,6597
100,5	13,85	1,6849	1,6676
100,9	13,891	1,6927	1,6754
101,3	13,89	1,699	1,6817
101,7	13,866	1,7054	1,6881
102,2	13,875	1,7111	1,6938
102,6	13,998	1,7207	1,7034
103	13,981	1,7274	1,7101
103,5	14,2	1,7392	1,7219
103,9	14,009	1,7421	1,7248
104,3	14,019	1,7479	1,7306
104,7	14,017	1,7546	1,7373
105,2	14,069	1,7622	1,7449
105,6	14,108	1,7687	1,7514
106	14,189	1,7773	1,76
106,4	14,427	1,7902	1,7729
106,9	14,167	1,7903	1,773
107,3	14,262	1,7987	1,7814
107,7	14,209	1,8041	1,7868
108,2	14,292	1,813	1,7957
108,6	14,29	1,8195	1,8022
109	14,378	1,8277	1,8104
109,4	14,534	1,8378	1,8205
109,9	14,288	1,8379	1,8206
110,3	14,468	1,8483	1,831
110,7	14,387	1,8534	1,8361
111,2	14,453	1,8619	1,8446
111,6	14,52	1,87	1,8527
112	14,569	1,8773	1,86
112,4	14,64	1,8864	1,8691
112,9	14,443	1,8877	1,8704
113,3	14,615	1,8979	1,8806
113,7	14,573	1,9039	1,8866
114,1	14,678	1,9122	1,8949
114,6	14,675	1,9189	1,9016
115	14,794	1,9286	1,9113
115,4	14,823	1,9354	1,9181
115,9	14,865	1,9425	1,9252
116,3	14,743	1,946	1,9287
116,7	14,839	1,9548	1,9375
117,1	14,878	1,9623	1,945
117,6	14,913	1,9699	1,9526
118	15,025	1,979	1,9617
118,4	14,941	1,983	1,9657
118,8	14,965	1,9905	1,9732
119,3	14,93	1,9961	1,9788
119,7	15,036	2,005	1,9877
120,1	15,056	2,0121	1,9948
120,6	15,244	2,0233	2,006
121	15,09	2,0257	2,0084
121,4	15,162	2,0333	2,016
121,8	15,169	2,04	2,0227
122,3	15,137	2,0469	2,0296
122,7	15,205	2,0542	2,0369
123,1	15,233	2,0618	2,0445
123,5	15,47	2,0745	2,0572
124	15,233	2,0748	2,0575
124,4	15,352	2,0832	2,0659
124,8	15,286	2,089	2,0717
125,3	15,409	2,0981	2,0808
125,7	15,388	2,1043	2,087
126,1	15,546	2,1146	2,0973
126,5	15,469	2,119	2,1017
127	15,511	2,1266	2,1093
127,4	15,539	2,1335	2,1162
127,8	15,471	2,1381	2,1208
128,3	15,565	2,1474	2,1301
128,7	15,599	2,1548	2,1375
129,1	15,622	2,1621	2,1448
129,5	15,691	2,1708	2,1535
130	15,514	2,1734	2,1561
130,4	15,644	2,1827	2,1654
130,8	15,631	2,1885	2,1712
131,2	15,69	2,1964	2,1791
131,7	15,789	2,2049	2,1876
132,1	15,994	2,2175	2,2002
132,5	15,724	2,2176	2,2003
133	15,933	2,228	2,2107
133,4	15,747	2,2317	2,2144
133,8	15,84	2,2399	2,2226
134,2	15,885	2,2475	2,2302
134,7	15,918	2,2549	2,2376
135,1	16,224	2,2688	2,2515
135,5	15,908	2,2688	2,2515
135,9	15,707	2,2699	2,2526
136,4	15,991	2,2814	2,2641
136,8	16,008	2,29	2,2728
137,2	16,051	2,2972	2,2799
137,7	16,365	2,3107	2,2934
138,1	16,152	2,3139	2,2966
138,5	15,903	2,314	2,2967
138,9	16,173	2,3258	2,3085
139,4	16,129	2,3303	2,313
139,8	16,165	2,3388	2,3215
140,2	16,209	2,3475	2,3302
140,6	16,377	2,3585	2,3412
141,1	16,229	2,3608	2,3435
141,5	16,234	2,3669	2,3496
141,9	16,255	2,3741	2,3568
142,4	16,319	2,3817	2,3644
142,8	16,327	2,3885	2,3712
143,2	16,418	2,3971	2,3798
143,6	16,588	2,4078	2,3905
144,1	16,333	2,4088	2,3915
144,5	16,477	2,4203	2,403
144,9	16,434	2,424	2,4067
145,4	16,466	2,4322	2,4149
145,8	16,503	2,4396	2,4223
146,2	16,539	2,4471	2,4298
146,6	16,716	2,4597	2,4424
147,1	16,428	2,4598	2,4425
147,5	16,598	2,4683	2,451
147,9	16,557	2,474	2,4567
148,3	16,619	2,4819	2,4646
148,8	16,694	2,4892	2,4719
149,2	16,963	2,5035	2,4862
149,6	16,803	2,5067	2,4894
150,1	16,528	2,5067	2,4894
150,5	16,752	2,5174	2,5001
150,9	16,713	2,5238	2,5065
151,3	16,835	2,5322	2,5149
151,8	16,821	2,5395	2,5222
152,2	17,081	2,553	2,5357
152,6	16,822	2,5531	2,5358
153	16,972	2,5627	2,5454
153,5	16,821	2,5663	2,549
153,9	16,94	2,5754	2,5581
154,3	16,914	2,5817	2,5644
154,8	17,067	2,5913	2,574
155,2	17,075	2,5984	2,5811
155,6	16,979	2,6023	2,585
156	17,034	2,6109	2,5936
156,5	16,97	2,616	2,5987
156,9	17,112	2,6251	2,6078
157,3	17,14	2,6326	2,6153
157,7	17,167	2,6401	2,6228
158,2	17,212	2,6479	2,6306
158,6	17,087	2,6513	2,634
159	17,104	2,6595	2,6422
159,5	17,2	2,6675	2,6502
159,9	17,21	2,6741	2,6568
160,3	17,264	2,6823	2,665
160,7	17,352	2,6923	2,675
161,2	17,046	2,6925	2,6752
161,6	17,259	2,7047	2,6874
162	17,017	2,7085	2,6912
162,5	17,032	2,7172	2,6999
162,9	16,94	2,7243	2,707
163,3	16,868	2,7337	2,7164
163,7	16,092	2,7427	2,7254
164,2	15,583	2,743	2,7257
164,6	15,635	2,7522	2,7349
165	15,538	2,7582	2,7409
165,4	15,641	2,7666	2,7493
165,9	15,684	2,7747	2,7574
166,3	16,138	2,7899	2,7726
166,7	15,898	2,7921	2,7748
167,2	15,65	2,7922	2,7749
167,6	15,953	2,8032	2,7859
168	15,886	2,8085	2,7912
168,4	16,056	2,8175	2,8002
168,9	16,145	2,8247	2,8074
169,3	16,26	2,8344	2,8171
169,7	16,271	2,8405	2,8232
170,1	16,411	2,8471	2,8298
170,6	16,299	2,8511	2,8338
171	16,432	2,8594	2,8421
171,4	16,448	2,8665	2,8492
171,9	16,714	2,8777	2,8604
172,3	16,689	2,8844	2,8671
172,7	16,408	2,8846	2,8673
173,1	16,754	2,8972	2,8799
173,6	16,664	2,9013	2,884
174	16,72	2,9092	2,8919
174,4	16,802	2,9172	2,8999
174,8	16,886	2,9249	2,9076
175,3	16,909	2,9322	2,9149
175,7	16,85	2,9379	2,9206
176,1	16,943	2,9442	2,9269
176,6	16,948	2,9514	2,9341
177	16,996	2,9593	2,942
177,4	16,971	2,9656	2,9483
177,8	17,17	2,9768	2,9595
178,3	17,238	2,9839	2,9666
178,7	17,231	2,9904	2,9731
179,1	17,067	2,9936	2,9763
179,6	17,15	3,0021	2,9848
180	17,157	3,0093	2,992
180,4	17,296	3,0181	3,0008
180,8	17,184	3,0231	3,0058
181,3	17,31	3,0322	3,0149
181,7	17,295	3,0386	3,0213
182,1	17,248	3,0437	3,0264
182,5	17,318	3,052	3,0347
183	17,344	3,0587	3,0414
183,4	17,439	3,0678	3,0505
183,8	17,594	3,078	3,0607
184,3	17,278	3,0781	3,0608
184,7	17,481	3,0881	3,0708
185,1	17,428	3,0933	3,076
185,5	17,53	3,1016	3,0843
186	17,535	3,1093	3,092
186,4	17,702	3,12	3,1027
186,8	17,56	3,123	3,1057
187,2	17,668	3,132	3,1147
187,7	17,551	3,1361	3,1188
188,1	17,593	3,1439	3,1266
188,5	17,634	3,1518	3,1345
189	17,711	3,1596	3,1423
189,4	17,851	3,1698	3,1525
189,8	17,54	3,1701	3,1528
190,2	17,777	3,1824	3,1651
190,7	17,686	3,1856	3,1683
191,1	17,755	3,1945	3,1772
191,5	17,778	3,2012	3,1839
191,9	17,88	3,2107	3,1934
192,4	17,899	3,2179	3,2006
192,8	17,888	3,2251	3,2078
193,2	17,759	3,229	3,2117
193,7	17,811	3,2364	3,2191
194,1	17,859	3,2449	3,2276
194,5	17,914	3,2519	3,2346
194,9	18,179	3,265	3,2477
195,4	17,858	3,265	3,2477
195,8	18,008	3,2752	3,2579
196,2	17,854	3,2787	3,2614
196,7	17,991	3,2879	3,2706
197,1	17,95	3,294	3,2767
197,5	18,056	3,3033	3,286
197,9	18,03	3,3099	3,2926
198,4	18,014	3,3159	3,2986
198,8	18,039	3,323	3,3057
199,2	17,982	3,3288	3,3115
199,6	18,099	3,337	3,3197
200,1	18,142	3,3445	3,3273
200,5	18,279	3,3542	3,3369
200,9	18,211	3,3599	3,3426
201,4	18,135	3,365	3,3477
201,8	18,161	3,3716	3,3543
202,2	18,14	3,3784	3,3611
202,6	18,244	3,3877	3,3704
203,1	18,264	3,395	3,3777
203,5	18,285	3,402	3,3847
203,9	18,4	3,4118	3,3945
204,3	18,069	3,4119	3,3946
204,8	18,249	3,4221	3,4048
205,2	18,247	3,4293	3,412
205,6	18,274	3,4371	3,4198
206,1	18,358	3,4446	3,4273
206,5	18,389	3,4522	3,4349
206,9	18,367	3,4588	3,4415
207,3	18,428	3,4673	3,45
207,8	18,268	3,4708	3,4535
208,2	18,346	3,4789	3,4616
208,6	18,421	3,4871	3,4698
209	18,448	3,495	3,4777
209,5	18,506	3,5029	3,4856
209,9	18,488	3,5089	3,4916
210,3	18,474	3,5155	3,4982
210,8	18,407	3,5219	3,5046
211,2	18,494	3,5298	3,5125
211,6	18,425	3,5348	3,5175
212	18,669	3,5468	3,5295
212,5	18,497	3,5503	3,533
212,9	18,578	3,559	3,5417
213,3	18,51	3,5636	3,5463
213,8	18,533	3,5704	3,5531
214,2	18,57	3,5791	3,5618
214,6	18,661	3,5865	3,5692
215	18,793	3,5976	3,5803
215,5	18,643	3,6012	3,5839
215,9	18,687	3,6086	3,5913
216,3	18,635	3,614	3,5967
216,7	18,655	3,6213	3,604
217,2	18,706	3,6284	3,6111
217,6	18,771	3,6367	3,6194
218	19,074	3,6505	3,6332
218,5	18,721	3,6505	3,6332
218,9	18,798	3,6586	3,6413
219,3	18,732	3,6638	3,6465
219,7	18,847	3,6719	3,6546
220,2	18,872	3,6795	3,6622
220,6	18,898	3,6875	3,6702
221	18,942	3,6954	3,6781
221,4	18,948	3,7029	3,6856
221,9	18,762	3,7061	3,6888
222,3	18,829	3,7134	3,6961
222,7	18,899	3,7216	3,7043
223,2	18,878	3,7287	3,7114
223,6	19,206	3,7429	3,7256
224	18,895	3,7431	3,7258
224,4	18,831	3,7482	3,7309
224,9	18,867	3,7561	3,7388
225,3	18,964	3,765	3,7477
225,7	18,958	3,7717	3,7544
226,1	19,033	3,7809	3,7636
226,6	19,056	3,7876	3,7703
227	19,029	3,7935	3,7762
227,4	19,026	3,7995	3,7822
227,9	18,965	3,8057	3,7884
228,3	19,073	3,8147	3,7974
228,7	19,077	3,8211	3,8038
229,1	19,234	3,8311	3,8138
229,6	19,168	3,8372	3,8199
230	19,228	3,8459	3,8286
230,4	19,098	3,8488	3,8315
230,9	19,141	3,8567	3,8394
231,3	19,176	3,8642	3,8469
231,7	19,23	3,872	3,8547
232,1	19,478	3,8846	3,8673
232,6	19,135	3,8847	3,8674
233	19,22	3,8923	3,875
233,4	19,178	3,8985	3,8812
233,8	19,266	3,9073	3,89
234,3	19,283	3,9137	3,8964
234,7	19,336	3,9222	3,9049
235,1	19,472	3,9325	3,9152
235,6	19,155	3,9326	3,9153
236	19,325	3,9436	3,9263
236,4	19,222	3,948	3,9307
236,8	19,387	3,9577	3,9404
237,3	19,382	3,9647	3,9474
237,7	19,368	3,9722	3,9549
238,1	19,396	3,9794	3,9621
238,5	19,418	3,9855	3,9682
239	19,383	3,9914	3,9741
239,4	19,345	3,9982	3,9809
239,8	19,41	4,0067	3,9894
240,3	19,441	4,0136	3,9963
240,7	19,585	4,0246	4,0073
241,1	19,452	4,0293	4,012
241,5	19,578	4,0384	4,0211
242	19,42	4,0415	4,0242
242,4	19,472	4,0488	4,0315
242,8	19,516	4,0566	4,0393
243,2	19,55	4,0642	4,0469
243,7	19,787	4,0763	4,059
244,1	19,47	4,0764	4,0591
244,5	19,659	4,0867	4,0694
245	19,534	4,0913	4,074
245,4	19,604	4,0997	4,0824
245,8	19,612	4,1064	4,0891
246,2	19,802	4,1171	4,0998
246,7	19,742	4,1226	4,1053
247,1	19,744	4,1295	4,1122
247,5	19,651	4,1342	4,1169
248	19,654	4,1408	4,1235
248,4	19,734	4,1494	4,1321
248,8	19,731	4,1556	4,1383
249,2	19,884	4,1662	4,1489
249,7	19,879	4,1728	4,1555
250,1	19,8	4,1781	4,1608
250,5	19,782	4,184	4,1667
250,9	19,766	4,1911	4,1738
251,4	19,806	4,1985	4,1812
251,8	19,951	4,2065	4,1892
252,2	20,174	4,2198	4,2025
252,7	19,843	4,2199	4,2026
253,1	20,062	4,2298	4,2125
253,5	19,867	4,2328	4,2155
253,9	19,913	4,2428	4,2255
254,4	19,988	4,2497	4,2324
254,8	20,031	4,2572	4,24
255,2	20,076	4,2659	4,2486
255,6	19,92	4,2704	4,2531
256,1	19,969	4,2768	4,2595
256,5	19,904	4,2828	4,2655
256,9	20,049	4,2924	4,2751
257,4	20,06	4,2984	4,2811
257,8	20,37	4,3127	4,2954
258,2	20,04	4,3129	4,2956
258,6	20,14	4,3209	4,3036
259,1	20,066	4,3259	4,3086
259,5	20,165	4,3343	4,317
259,9	20,161	4,3418	4,3245
260,3	20,23	4,35	4,3327
260,8	20,227	4,3569	4,3396
261,2	20,285	4,3641	4,3468
261,6	20,232	4,3706	4,3533
262,1	20,156	4,3758	4,3585
262,5	20,297	4,3849	4,3676
262,9	20,248	4,391	4,3737
263,3	20,505	4,4032	4,3859
263,8	20,302	4,4063	4,389
264,2	20,349	4,4134	4,3961
264,6	20,256	4,4189	4,4016
265,1	20,309	4,4257	4,4084
265,5	20,317	4,4344	4,4171
265,9	20,358	4,4413	4,424
266,3	20,503	4,4517	4,4344
266,8	20,55	4,4591	4,4418
267,2	20,355	4,4624	4,4451
267,6	20,342	4,4696	4,4523
268	20,422	4,4773	4,46
268,5	20,387	4,4833	4,466
268,9	20,448	4,4923	4,475
269,3	20,698	4,5046	4,4873
269,8	20,345	4,505	4,4877
270,2	20,499	4,514	4,4967
270,6	20,351	4,5178	4,5005
271	20,571	4,5271	4,5098
271,5	20,534	4,5345	4,5172
271,9	20,605	4,5419	4,5246
272,3	20,618	4,5498	4,5325
272,7	20,6	4,5563	4,539
273,2	20,619	4,5627	4,5454
273,6	20,532	4,5684	4,5511
274	20,633	4,5771	4,5598
274,5	20,607	4,5837	4,5664
274,9	20,993	4,5981	4,5808
275,3	20,658	4,5983	4,581
275,7	20,714	4,6052	4,5879
276,2	20,687	4,6108	4,5935
276,6	20,719	4,6192	4,6019
277	20,728	4,6262	4,6089
277,4	20,809	4,6345	4,6172
277,9	20,905	4,6439	4,6266
278,3	20,906	4,6503	4,633
278,7	20,825	4,6559	4,6386
279,2	20,747	4,6606	4,6433
279,6	20,832	4,6703	4,653
280	20,849	4,6766	4,6593
280,4	20,925	4,6848	4,6675
280,9	20,942	4,6927	4,6754
281,3	20,798	4,6965	4,6792
281,7	20,891	4,7045	4,6872
282,2	20,823	4,7108	4,6935
282,6	20,969	4,7201	4,7028
283	20,937	4,7272	4,7099
283,4	20,965	4,7344	4,7171
283,9	21,13	4,7456	4,7283
284,3	20,789	4,7458	4,7285
284,7	20,981	4,7545	4,7372
285,1	20,933	4,7611	4,7438
285,6	20,996	4,7694	4,7521
286	21,041	4,777	4,7597
286,4	21,388	4,7914	4,7741
286,9	21,034	4,7914	4,7741
287,3	20,924	4,795	4,7777
287,7	20,987	4,8037	4,7864
288,1	21,054	4,8115	4,7942
288,6	21,127	4,8193	4,802
289	21,15	4,8271	4,8098
289,4	21,344	4,8377	4,8204
289,8	21,013	4,8377	4,8204
290,3	21,241	4,8482	4,8309
290,7	21,102	4,8528	4,8355
291,1	21,246	4,8623	4,845
291,6	21,191	4,8682	4,8509
292	21,645	4,8852	4,8679
292,4	21,282	4,8857	4,8684
292,8	20,963	4,8859	4,8686
293,3	21,295	4,8975	4,8802
293,7	21,228	4,9035	4,8862
294,1	21,313	4,9116	4,8943
294,5	21,336	4,9192	4,9019
295	21,545	4,9308	4,9135
295,4	21,243	4,9312	4,9139
295,8	21,429	4,9424	4,9251
296,3	21,275	4,9457	4,9284
296,7	21,436	4,9553	4,938
297,1	21,413	4,9619	4,9446
297,5	21,537	4,9712	4,9539
298	21,482	4,9775	4,9602
298,4	21,383	4,9827	4,9654
298,8	21,468	4,9906	4,9733
299,3	21,343	4,9956	4,9783
299,7	21,472	5,0046	4,9873
300,1	21,501	5,0118	4,9945
300,5	21,517	5,0195	5,0022
301	21,667	5,0303	5,013
301,4	21,307	5,0304	5,0131
301,8	21,526	5,0401	5,0228
302,2	21,449	5,0456	5,0283
302,7	21,533	5,0541	5,0368
303,1	21,625	5,0619	5,0447
303,5	21,942	5,0756	5,0583
304	21,597	5,0757	5,0584
304,4	21,593	5,0818	5,0645
304,8	21,57	5,0885	5,0712
305,2	21,662	5,0968	5,0796
305,7	21,704	5,1038	5,0865
306,1	21,748	5,1116	5,0943
306,5	21,822	5,1213	5,104
306,9	21,482	5,1219	5,1046
307,4	21,715	5,1331	5,1158
307,8	21,634	5,1384	5,1211
308,2	21,779	5,1478	5,1305
308,7	21,757	5,1544	5,1371
309,1	21,814	5,1619	5,1446
309,5	21,939	5,1728	5,1555
309,9	21,592	5,1728	5,1555
310,4	21,84	5,1836	5,1663
310,8	21,71	5,1879	5,1706
311,2	21,774	5,1965	5,1792
311,6	21,82	5,2042	5,1869
312,1	22,216	5,2196	5,2023
312,5	21,875	5,2197	5,2024
312,9	21,674	5,2228	5,2055
313,4	21,798	5,2307	5,2134
313,8	21,832	5,2396	5,2223
314,2	21,809	5,2459	5,2286
314,6	21,929	5,2543	5,237
315,1	22,018	5,2636	5,2463
315,5	21,941	5,2689	5,2516
315,9	22,073	5,2781	5,2608
316,4	21,829	5,2807	5,2634
316,8	21,939	5,2889	5,2716
317,2	22,023	5,2978	5,2805
317,6	22,058	5,3048	5,2875
318,1	22,147	5,3141	5,2968
318,5	21,818	5,3147	5,2974
318,9	22,095	5,3265	5,3092
319,3	21,963	5,3311	5,3138
319,8	22,039	5,3384	5,3211
320,2	22,066	5,3456	5,3283
320,6	22,423	5,36	5,3427
321,1	22,09	5,3602	5,3429
321,5	22,242	5,3705	5,3532
321,9	22,073	5,3735	5,3563
322,3	22,132	5,382	5,3647
322,8	22,13	5,3885	5,3712
323,2	22,228	5,397	5,3797
323,6	22,444	5,4085	5,3912
324	22,093	5,4086	5,3913
324,5	22,238	5,4184	5,4011
324,9	22,161	5,4235	5,4062
325,3	22,265	5,432	5,4147
325,8	22,288	5,4399	5,4226
326,2	22,311	5,4473	5,43
326,6	22,519	5,4588	5,4415
327	22,138	5,4588	5,4415
327,5	22,37	5,469	5,4517
327,9	22,268	5,4731	5,4558
328,3	22,3	5,4817	5,4644
328,7	22,357	5,4892	5,4719
329,2	22,614	5,5012	5,4839
329,6	22,329	5,503	5,4857
330	22,465	5,512	5,4947
330,5	22,316	5,5159	5,4986
330,9	22,484	5,526	5,5087
331,3	22,328	5,5298	5,5125
331,7	22,406	5,5385	5,5212
332,2	22,636	5,5518	5,5345
332,6	22,275	5,5518	5,5345
333	22,419	5,5587	5,5414
333,5	22,454	5,5658	5,5485
333,9	22,596	5,5748	5,5575
334,3	22,545	5,5819	5,5646
334,7	22,576	5,5896	5,5723
335,2	22,775	5,6003	5,583
335,6	22,385	5,6004	5,5831
336	22,62	5,6108	5,5935
336,4	22,504	5,6157	5,5984
336,9	22,625	5,6238	5,6065
337,3	22,633	5,6317	5,6144
337,7	22,939	5,6446	5,6274
338,2	22,585	5,6449	5,6276
338,6	22,667	5,6528	5,6355
339	22,657	5,6587	5,6414
339,4	22,63	5,667	5,6497
339,9	22,643	5,6734	5,6561
340,3	22,757	5,6816	5,6644
340,7	22,812	5,6918	5,6745
341,1	22,671	5,6946	5,6773
341,6	22,714	5,7033	5,686
342	22,631	5,7084	5,6911
342,4	22,7	5,7159	5,6986
342,9	22,766	5,7245	5,7072
343,3	22,782	5,7318	5,7145
343,7	23,06	5,7452	5,7279
344,1	22,667	5,7452	5,7279
344,6	22,731	5,753	5,7357
345	22,725	5,7586	5,7413
345,4	22,799	5,7671	5,7498
345,8	22,82	5,7744	5,7571
346,3	23,001	5,7849	5,7676
346,7	22,923	5,7907	5,7734
347,1	22,597	5,7912	5,7739
347,6	22,808	5,8016	5,7843
348	22,852	5,8085	5,7912
348,4	22,885	5,8163	5,799
348,8	22,938	5,8241	5,8068
349,3	23,187	5,8359	5,8186
349,7	22,864	5,8361	5,8188
350,1	23,047	5,8468	5,8295
350,6	22,925	5,8504	5,8331
351	23,028	5,8594	5,8421
351,4	22,982	5,8662	5,8489
351,8	23,081	5,874	5,8567
352,3	23,386	5,888	5,8707
352,7	23,008	5,8881	5,8708
353,1	22,869	5,8921	5,8748
353,5	23,003	5,9015	5,8842
354	23,069	5,9084	5,8911
354,4	23,085	5,9162	5,8989
354,8	23,258	5,9264	5,9091
355,3	23,157	5,9321	5,9148
355,7	23,169	5,9385	5,9212
356,1	23,102	5,9439	5,9266
356,5	23,085	5,9504	5,9331
357	23,148	5,959	5,9417
357,4	23,21	5,9667	5,9494
357,8	23,511	5,9802	5,9629
358,2	23,227	5,9821	5,9648
358,7	22,947	5,9833	5,966
359,1	23,129	5,9936	5,9763
359,5	23,193	6,0015	5,9842
360	23,274	6,0099	5,9926
360,4	23,289	6,0171	5,9998
360,8	23,582	6,0305	6,0132
361,2	23,222	6,0306	6,0133
361,7	23,284	6,0383	6,021
362,1	23,237	6,0431	6,0258
362,5	23,327	6,0521	6,0348
362,9	23,346	6,0589	6,0416
363,4	23,427	6,0671	6,0498
363,8	23,451	6,0757	6,0584
364,2	23,218	6,0777	6,0604
364,7	23,363	6,0867	6,0694
365,1	23,327	6,0925	6,0752
365,5	23,413	6,1014	6,0841
365,9	23,43	6,1086	6,0913
366,4	23,743	6,1226	6,1053
366,8	23,349	6,1227	6,1054
367,2	23,556	6,1324	6,1151
367,7	23,399	6,1357	6,1184
368,1	23,453	6,1446	6,1273
368,5	23,518	6,1522	6,1349
368,9	23,579	6,1597	6,1424
369,4	23,779	6,1716	6,1543
369,8	23,408	6,1713	6,154
370,2	23,604	6,1806	6,1633
370,6	23,447	6,1852	6,1679
371,1	23,56	6,1941	6,1768
371,5	23,556	6,2007	6,1834
371,9	23,915	6,2154	6,1981
372,4	23,695	6,2191	6,2018
372,8	23,347	6,2192	6,2019
373,2	23,635	6,2306	6,2133
373,6	23,513	6,2358	6,2185
374,1	23,584	6,2438	6,2265
374,5	23,673	6,2513	6,234
374,9	23,854	6,2634	6,2461
375,3	23,535	6,2637	6,2464
375,8	23,675	6,2733	6,256
376,2	23,619	6,2786	6,2613
376,6	23,651	6,2858	6,2685
377,1	23,751	6,2942	6,2769
377,5	23,757	6,3019	6,2847
377,9	23,965	6,3132	6,2959
378,3	23,609	6,3135	6,2962
378,8	23,772	6,3234	6,3061
379,2	23,682	6,3285	6,3112
379,6	23,829	6,3373	6,32
380	23,766	6,3434	6,3261
380,5	23,922	6,3531	6,3358
380,9	23,871	6,359	6,3417
381,3	23,87	6,3661	6,3488
381,8	23,882	6,3725	6,3552
382,2	23,796	6,3779	6,3606
382,6	23,862	6,3863	6,369
383	23,895	6,3937	6,3764
383,5	24,018	6,4035	6,3862
383,9	23,882	6,408	6,3907
384,3	24,018	6,4187	6,4014
384,8	23,81	6,4212	6,4039
385,2	23,86	6,4286	6,4113
385,6	23,899	6,4355	6,4182
386	23,984	6,444	6,4267
386,5	24,365	6,4592	6,4419
386,9	23,977	6,4592	6,4419
387,3	23,652	6,4593	6,442
387,7	23,943	6,4716	6,4543
388,2	23,921	6,4788	6,4615
388,6	23,992	6,4861	6,4688
389	24,074	6,4949	6,4776
389,5	24,082	6,5029	6,4856
389,9	23,884	6,5062	6,4889
390,3	24,122	6,516	6,4988
390,7	23,949	6,5209	6,5036
391,2	24,043	6,5294	6,5121
391,6	24,065	6,5362	6,5189
392	24,126	6,5444	6,5271
392,4	24,154	6,553	6,5357
392,9	23,846	6,5533	6,536
393,3	24,098	6,5646	6,5473
393,7	24,038	6,5696	6,5523
394,2	24,101	6,5798	6,5625
394,6	24,134	6,5871	6,5698
395	24,423	6,5985	6,5812
395,4	24,091	6,5989	6,5816
395,9	24,244	6,6084	6,5911
396,3	24,115	6,6136	6,5963
396,7	24,208	6,6222	6,6049
397,1	24,203	6,6282	6,6109
397,6	24,287	6,637	6,6197
398	24,411	6,6473	6,63
398,4	24,048	6,6474	6,6301
398,9	24,273	6,6576	6,6403
399,3	24,145	6,6626	6,6453
399,7	24,294	6,6717	6,6544
400,1	24,231	6,6784	6,6611
400,6	24,518	6,6911	6,6738
401	24,168	6,6911	6,6738
401,4	24,273	6,7008	6,6835
401,9	24,175	6,7063	6,689
402,3	24,159	6,7133	6,696
402,7	24,047	6,7216	6,7043
403,1	23,611	6,729	6,7117
403,6	23,917	6,743	6,7257
404	23,51	6,7432	6,7259
404,4	23,362	6,7469	6,7296
404,8	23,472	6,7565	6,7392
405,3	23,568	6,7644	6,7471
405,7	23,545	6,7706	6,7533
406,1	23,7	6,7803	6,763
406,6	23,819	6,7883	6,771
407	23,649	6,7923	6,775
407,4	23,803	6,8003	6,783
407,8	23,722	6,805	6,7877
408,3	23,816	6,8139	6,7966
408,7	23,883	6,8215	6,8042
409,1	24,069	6,8316	6,8143
409,5	23,991	6,8367	6,8194
410	23,981	6,8427	6,8254
410,4	23,968	6,8488	6,8315
410,8	23,973	6,8558	6,8385
411,3	24,067	6,8637	6,8464
411,7	24,141	6,8717	6,8544
412,1	24,565	6,8868	6,8695
412,5	24,224	6,8868	6,8695
413	24,002	6,8893	6,872
413,4	24,184	6,8981	6,8808
413,8	24,248	6,9071	6,8898
414,3	24,229	6,9132	6,8959
414,7	24,35	6,9219	6,9046
415,1	24,408	6,9296	6,9123
415,5	24,421	6,9372	6,9199
416	24,32	6,9424	6,9251
416,4	24,347	6,9481	6,9308
416,8	24,411	6,9572	6,9399
417,2	24,38	6,9634	6,9461
417,7	24,52	6,972	6,9547
418,1	24,499	6,979	6,9617
418,5	24,479	6,9854	6,9681
419	24,461	6,9909	6,9736
419,4	24,475	6,9981	6,9808
419,8	24,514	7,0065	6,9892
420,2	24,553	7,0143	6,997
420,7	24,786	7,026	7,0088
421,1	24,663	7,03	7,0127
421,5	24,36	7,0307	7,0134
421,9	24,609	7,0412	7,0239
422,4	24,571	7,0489	7,0316
422,8	24,689	7,0567	7,0394
423,2	24,702	7,0634	7,0461
423,7	24,768	7,0721	7,0548
424,1	24,721	7,078	7,0607
424,5	24,767	7,0861	7,0688
424,9	24,648	7,0903	7,073
425,4	24,755	7,0995	7,0822
425,8	24,748	7,106	7,0887
426,2	24,805	7,1144	7,0971
426,6	24,909	7,1235	7,1062
427,1	24,567	7,1239	7,1066
427,5	24,791	7,1347	7,1174
427,9	24,716	7,1396	7,1223
428,4	24,834	7,1495	7,1322
428,8	24,828	7,1563	7,139
429,2	25,048	7,168	7,1507
429,6	24,812	7,1702	7,1529
430,1	24,848	7,1769	7,1596
430,5	24,805	7,1836	7,1663
430,9	24,876	7,1917	7,1744
431,4	24,893	7,1985	7,1812
431,8	24,932	7,2063	7,189
432,2	25,123	7,2173	7,2
432,6	24,805	7,2177	7,2004
433,1	24,953	7,2276	7,2103
433,5	24,873	7,2326	7,2153
433,9	25,003	7,2426	7,2253
434,3	24,961	7,2486	7,2313
434,8	25,41	7,2645	7,2472
435,2	25,053	7,2648	7,2475
435,6	24,727	7,265	7,2477
436,1	24,98	7,2767	7,2594
436,5	24,939	7,2823	7,265
436,9	24,98	7,2923	7,275
437,3	25,008	7,2991	7,2818
437,8	25,286	7,3112	7,2939
438,2	25,058	7,3141	7,2968
438,6	24,919	7,3184	7,3011
439	24,999	7,3269	7,3096
439,5	25,101	7,3344	7,3171
439,9	25,05	7,3405	7,3232
440,3	25,134	7,349	7,3317
440,8	25,507	7,3646	7,3473
441,2	25,111	7,3643	7,347
441,6	24,803	7,3634	7,3461
442	25,118	7,3757	7,3584
442,5	25,179	7,3846	7,3673
442,9	25,207	7,3918	7,3745
443,3	25,235	7,3991	7,3818
443,7	25,29	7,4072	7,3899
444,2	25,185	7,4125	7,3952
444,6	25,281	7,4206	7,4033
445	25,156	7,4251	7,4078
445,5	25,282	7,4344	7,4171
445,9	25,24	7,4407	7,4234
446,3	25,433	7,4516	7,4343
446,7	25,278	7,4561	7,4388
447,2	25,286	7,4632	7,4459
447,6	25,254	7,4688	7,4515
448	25,249	7,4762	7,4589
448,5	25,346	7,4848	7,4675
448,9	25,366	7,4917	7,4744
449,3	25,649	7,505	7,4877
449,7	25,294	7,5052	7,4879
450,2	25,433	7,5155	7,4982
450,6	25,265	7,5182	7,501
451	25,31	7,5264	7,5091
451,4	25,326	7,5334	7,5161
451,9	25,49	7,5434	7,5261
452,3	25,583	7,5521	7,5348
452,7	25,296	7,5538	7,5365
453,2	25,424	7,5627	7,5454
453,6	25,302	7,5683	7,551
454	25,409	7,5766	7,5593
454,4	25,386	7,5834	7,5661
454,9	25,691	7,5975	7,5802
455,3	25,374	7,5976	7,5803
455,7	25,465	7,6056	7,5883
456,1	25,478	7,6116	7,5943
456,6	25,422	7,6178	7,6005
457	25,485	7,6259	7,6086
457,4	25,547	7,6344	7,6171
457,9	25,99	7,6498	7,6325
458,3	25,606	7,6498	7,6325
458,7	25,283	7,6498	7,6325
459,1	25,527	7,661	7,6437
459,6	25,651	7,6695	7,6522
460	25,676	7,6763	7,659
460,4	25,678	7,6839	7,6666
460,8	25,804	7,6943	7,677
461,3	25,488	7,6955	7,6782
461,7	25,676	7,7048	7,6875
462,1	25,553	7,7102	7,6929
462,6	25,695	7,7198	7,7025
463	25,625	7,7252	7,7079
463,4	25,992	7,7397	7,7224
463,8	25,684	7,7401	7,7228
464,3	25,711	7,7472	7,7299
464,7	25,684	7,7539	7,7366
465,1	25,631	7,7604	7,7431
465,6	25,72	7,7688	7,7515
466	25,686	7,7755	7,7582
466,4	25,895	7,7865	7,7692
466,8	25,65	7,7885	7,7712
467,3	25,778	7,7991	7,7818
467,7	25,684	7,8029	7,7856
468,1	25,825	7,8119	7,7946
468,5	25,755	7,8177	7,8004
469	25,863	7,8273	7,81
469,4	26,126	7,8387	7,8214
469,8	25,735	7,8388	7,8215
470,3	25,976	7,8486	7,8313
470,7	25,839	7,8526	7,8353
471,1	25,922	7,8619	7,8446
471,5	25,911	7,8686	7,8513
472	26,182	7,8808	7,8636
472,4	25,85	7,8814	7,8641
472,8	25,997	7,8901	7,8728
473,2	25,947	7,8967	7,8794
473,7	25,902	7,9028	7,8855
474,1	25,931	7,9099	7,8926
474,5	26,028	7,9192	7,9019
475	26,366	7,9338	7,9165
475,4	25,97	7,9338	7,9165
475,8	25,805	7,9375	7,9202
476,2	25,858	7,9459	7,9286
476,7	25,927	7,9544	7,9371
477,1	25,908	7,9617	7,9444
477,5	25,932	7,969	7,9517
477,9	26,178	7,9812	7,9639
478,4	25,814	7,9815	7,9642
478,8	25,941	7,9912	7,9739
479,2	25,744	7,9958	7,9785
479,7	25,844	8,0046	7,9873
480,1	25,755	8,0101	7,9928
480,5	26,015	8,0233	8,006
480,9	25,747	8,0264	8,0091
481,4	25,673	8,0325	8,0152
481,8	25,614	8,0393	8,022
482,2	25,539	8,0453	8,028
482,7	25,59	8,0539	8,0366
483,1	25,525	8,0605	8,0432
483,5	25,876	8,0746	8,0573
483,9	25,476	8,0754	8,0581
484,4	25,415	8,0809	8,0636
484,8	25,471	8,0884	8,0711
485,2	25,496	8,0957	8,0784
485,6	25,538	8,1036	8,0863
486,1	25,616	8,1116	8,0943
486,5	25,669	8,1198	8,1025
486,9	25,704	8,126	8,1087
487,4	25,742	8,1338	8,1165
487,8	25,592	8,1377	8,1204
488,2	25,71	8,1469	8,1296
488,6	25,643	8,1529	8,1356
489,1	25,789	8,1635	8,1462
489,5	26,015	8,1735	8,1562
489,9	25,731	8,1737	8,1564
490,3	25,863	8,1824	8,1651
490,8	25,755	8,1879	8,1706
491,2	25,847	8,1973	8,18
491,6	25,918	8,2039	8,1866
492,1	25,955	8,2116	8,1943
492,5	26,11	8,2216	8,2043
492,9	25,772	8,2217	8,2044
493,3	26,037	8,232	8,2147
493,8	25,9	8,2378	8,2205
494,2	26,024	8,2465	8,2292
494,6	26,014	8,2527	8,2354
495	26,053	8,261	8,2437
495,5	26,14	8,2689	8,2516
495,9	26,154	8,2763	8,259
496,3	26,049	8,2808	8,2635
496,8	26,154	8,2894	8,2721
497,2	26,127	8,2959	8,2786
497,6	26,315	8,3063	8,289
498	26,206	8,3108	8,2935
498,5	26,198	8,3173	8,3
498,9	26,201	8,3247	8,3074
499,3	26,116	8,3301	8,3128
499,8	26,281	8,339	8,3217
500,2	26,356	8,3464	8,3291
500,6	26,799	8,362	8,3447
501	26,43	8,3621	8,3448
501,5	26,19	8,3638	8,3465
501,9	26,366	8,3736	8,3563
502,3	26,403	8,3819	8,3646
502,7	26,378	8,3886	8,3713
503,2	26,5	8,3968	8,3795
503,6	26,701	8,4082	8,3909
504	26,376	8,4084	8,3911
504,5	26,565	8,4188	8,4015
504,9	26,415	8,4223	8,405
505,3	26,534	8,4317	8,4144
505,7	26,514	8,4384	8,4211
506,2	26,576	8,4464	8,4291
506,6	26,721	8,4566	8,4393
507	26,358	8,4567	8,4394
507,4	26,585	8,4673	8,45
507,9	26,492	8,4724	8,4551
508,3	26,547	8,4816	8,4643
508,7	26,566	8,488	8,4707
509,2	26,851	8,5008	8,4835
509,6	26,515	8,5009	8,4836
510	26,7	8,5105	8,4932
510,4	26,532	8,5161	8,4988
510,9	26,622	8,524	8,5067
511,3	26,629	8,5312	8,5139
511,7	26,699	8,5393	8,522
512,1	26,739	8,5476	8,5303
512,6	26,791	8,5555	8,5382
513	26,802	8,5619	8,5446
513,4	26,621	8,5653	8,548
513,9	26,674	8,5732	8,5559
514,3	26,72	8,5817	8,5644
514,7	26,733	8,5892	8,5719
515,1	26,956	8,6009	8,5836
515,6	26,587	8,6009	8,5836
516	26,813	8,61	8,5927
516,4	26,663	8,6155	8,5982
516,9	26,752	8,6242	8,6069
517,3	26,675	8,6301	8,6128
517,7	27,1	8,6451	8,6278
518,1	26,757	8,6453	8,628
518,6	26,805	8,6536	8,6363
519	26,703	8,6584	8,6411
519,4	26,75	8,6659	8,6486
519,8	26,77	8,6733	8,656
520,3	26,84	8,6813	8,664
520,7	27,012	8,6928	8,6755
521,1	26,732	8,6944	8,6771
521,6	26,932	8,7051	8,6878
522	26,681	8,7066	8,6893
522,4	26,788	8,7158	8,6985
522,8	26,86	8,7243	8,707
523,3	26,857	8,7312	8,7139
523,7	27,114	8,7433	8,726
524,1	26,772	8,7435	8,7262
524,5	26,961	8,7545	8,7372
525	26,78	8,7586	8,7413
525,4	26,891	8,7659	8,7486
525,8	26,879	8,7736	8,7563
526,3	27,169	8,7855	8,7682
526,7	27,058	8,7904	8,7731
527,1	26,723	8,7906	8,7733
527,5	26,99	8,8019	8,7846
528	26,92	8,8081	8,7908
528,4	26,964	8,8163	8,799
528,8	27,045	8,8239	8,8066
529,2	27,409	8,838	8,8207
529,7	27,058	8,8383	8,821
530,1	26,929	8,8423	8,825
530,5	26,982	8,8507	8,8334
531	27,055	8,859	8,8417
531,4	27,067	8,867	8,8497
531,8	27,079	8,8744	8,8571
532,2	27,488	8,8888	8,8715
532,7	27,119	8,8889	8,8716
533,1	26,828	8,8894	8,8721
533,5	27,041	8,8999	8,8826
534	27,164	8,9104	8,8931
534,4	27,1	8,9163	8,899
534,8	27,154	8,9236	8,9063
535,2	27,313	8,9334	8,9161
535,7	26,968	8,9337	8,9164
536,1	27,115	8,944	8,9267
536,5	27,066	8,9502	8,9329
536,9	27,156	8,9583	8,941
537,4	27,221	8,967	8,9497
537,8	27,334	8,9764	8,9591
538,2	27,192	8,981	8,9637
538,7	27,297	8,9895	8,9722
539,1	27,114	8,9926	8,9753
539,5	27,29	9,003	8,9857
539,9	27,236	9,0091	8,9918
540,4	27,253	9,0164	8,9991
540,8	27,445	9,0275	9,0102
541,2	27,097	9,0284	9,0111
541,6	27,296	9,0384	9,0211
542,1	27,153	9,0423	9,025
542,5	27,286	9,0517	9,0344
542,9	27,248	9,0581	9,0408
543,4	27,614	9,0711	9,0538
543,8	27,299	9,0734	9,0562
544,2	27,325	9,0796	9,0623
544,6	27,281	9,0863	9,069
545,1	27,249	9,0922	9,0749
545,5	27,352	9,1014	9,0842
545,9	27,352	9,1088	9,0915
546,3	27,553	9,1211	9,1038
546,8	27,233	9,1212	9,1039
547,2	27,37	9,1304	9,1131
547,6	27,252	9,1355	9,1182
548,1	27,334	9,144	9,1267
548,5	27,357	9,1514	9,1341
548,9	27,379	9,1589	9,1416
549,3	27,763	9,1737	9,1564
549,8	27,354	9,1738	9,1565
550,2	27,059	9,1742	9,1569
550,6	27,252	9,1858	9,1685
551,1	27,342	9,1944	9,1771
551,5	27,366	9,201	9,1837
551,9	27,435	9,21	9,1927
552,3	27,435	9,2171	9,1998
552,8	27,316	9,2222	9,2049
553,2	27,314	9,2294	9,2121
553,6	27,3	9,2356	9,2183
554	27,331	9,2433	9,226
554,5	27,38	9,2517	9,2344
554,9	27,503	9,2612	9,2439
555,3	27,272	9,2641	9,2468
555,8	27,557	9,2768	9,2595
556,2	27,273	9,2778	9,2605
556,6	27,312	9,2852	9,2679
557	27,434	9,2947	9,2774
557,5	27,457	9,3018	9,2845
557,9	27,731	9,3145	9,2972
558,3	27,377	9,3147	9,2974
558,7	27,41	9,321	9,3037
559,2	27,393	9,3276	9,3103
559,6	27,4	9,3354	9,3181
560	27,444	9,3431	9,3258
560,5	27,525	9,3519	9,3346
560,9	27,641	9,3612	9,3439
561,3	27,296	9,3613	9,344
561,7	27,539	9,3726	9,3553
562,2	27,398	9,3769	9,3596
562,6	27,483	9,3864	9,3691
563	27,49	9,3938	9,3765
563,4	27,487	9,4016	9,3843
563,9	27,581	9,4115	9,3942
564,3	27,168	9,4116	9,3943
564,7	27,279	9,4213	9,404
565,2	27,108	9,4275	9,4102
565,6	27,157	9,4363	9,419
566	27,101	9,443	9,4257
566,4	27,548	9,4597	9,4424
566,9	27,145	9,4594	9,4421
567,3	26,819	9,4591	9,4418
567,7	27,081	9,4712	9,4539
568,2	27,144	9,4808	9,4635
568,6	27,008	9,4851	9,4678
569	27,134	9,4938	9,4765
569,4	27,207	9,5021	9,4848
569,9	27,089	9,5076	9,4903
570,3	27,163	9,5143	9,497
570,7	27,05	9,5195	9,5022
571,1	27,19	9,5292	9,5119
571,6	27,134	9,5353	9,518
572	27,284	9,5458	9,5285
572,4	27,256	9,5523	9,535
572,9	27,249	9,5596	9,5423
573,3	27,075	9,5632	9,5459
573,7	27,043	9,5699	9,5526
574,1	27,079	9,579	9,5617
574,6	27,097	9,5863	9,569
575	27,382	9,5992	9,5819
575,4	27,024	9,5994	9,5821
575,8	27,079	9,6085	9,5912
576,3	26,994	9,6133	9,596
576,7	27,12	9,6222	9,6049
577,1	27,088	9,6284	9,6111
577,6	27,248	9,6388	9,6215
578	27,272	9,6462	9,6289
578,4	27,115	9,65	9,6327
578,8	27,268	9,6588	9,6415
579,3	27,083	9,6616	9,6443
579,7	27,208	9,6724	9,6551
580,1	27,207	9,6791	9,6618
580,5	27,497	9,6914	9,6741
581	27,245	9,693	9,6757
581,4	27,255	9,6999	9,6826
581,8	27,203	9,7061	9,6888
582,3	27,173	9,712	9,6947
582,7	27,287	9,7217	9,7044
583,1	27,314	9,7291	9,7118
583,5	27,703	9,7437	9,7264
584	27,379	9,7437	9,7264
584,4	27,184	9,7462	9,7289
584,8	27,311	9,7554	9,7381
585,3	27,384	9,7644	9,7471
585,7	27,344	9,7707	9,7534
586,1	27,481	9,7795	9,7622
586,5	27,502	9,7866	9,7693
587	27,554	9,7941	9,7768
587,4	27,426	9,7998	9,7825
587,8	27,405	9,8058	9,7885
588,2	27,497	9,814	9,7967
588,7	27,492	9,8201	9,8028
589,1	27,569	9,8299	9,8126
589,5	27,603	9,8367	9,8194
590	27,645	9,8439	9,8266
590,4	27,492	9,8478	9,8305
590,8	27,444	9,855	9,8377
591,2	27,52	9,8637	9,8464
591,7	27,565	9,8713	9,854
592,1	27,845	9,8844	9,8671
592,5	27,547	9,8855	9,8682
592,9	27,55	9,8925	9,8752
593,4	27,506	9,8984	9,8811
593,8	27,489	9,9055	9,8882
594,2	27,536	9,9133	9,896
594,7	27,592	9,9215	9,9042
595,1	27,896	9,9351	9,9178
595,5	27,53	9,9353	9,918
595,9	27,701	9,9445	9,9272
596,4	27,492	9,9475	9,9302
596,8	27,594	9,9566	9,9393
597,2	27,551	9,9629	9,9456
597,6	27,733	9,9731	9,9558
598,1	27,831	9,9823	9,965
598,5	27,498	9,9824	9,9651
598,9	27,579	9,9919	9,9746
599,4	27,468	9,9968	9,9795
599,8	27,594	10,006	9,9889
600,2	27,612	10,013	9,9958
600,6	27,822	10,025	10,007
601,1	27,825	10,032	10,015
601,5	27,472	10,032	10,014
601,9	27,645	10,042	10,024
602,4	27,613	10,049	10,032
602,8	27,582	10,056	10,038
603,2	27,678	10,064	10,046
603,6	27,915	10,076	10,058
604,1	27,567	10,076	10,059
604,5	27,734	10,085	10,068
604,9	27,607	10,09	10,073
605,3	27,786	10,101	10,083
605,8	27,689	10,106	10,088
606,2	27,759	10,115	10,098
606,6	27,781	10,121	10,104
607,1	27,788	10,129	10,112
607,5	27,669	10,134	10,117
607,9	27,65	10,14	10,123
608,3	27,742	10,149	10,131
608,8	27,728	10,156	10,139
609,2	28,127	10,172	10,155
609,6	27,701	10,172	10,155
610	27,276	10,172	10,155
610,5	27,314	10,184	10,166
610,9	27,095	10,19	10,173
611,3	24,315	10,199	10,181
611,8	22,762	10,206	10,189
612,2	21,222	10,215	10,198
612,6	19,844	10,22	10,203
613	18,781	10,229	10,211
613,5	17,745	10,232	10,215
613,9	16,872	10,242	10,224
614,3	15,934	10,248	10,231
614,7	15,24	10,258	10,24
615,2	14,71	10,268	10,251
615,6	13,977	10,268	10,251
616	13,747	10,277	10,26
616,5	13,33	10,282	10,265
616,9	13,001	10,291	10,274
617,3	12,66	10,299	10,281
617,7	12,428	10,312	10,295
618,2	11,828	10,312	10,295
618,6	11,651	10,32	10,303
619	11,331	10,325	10,308
619,5	11,087	10,332	10,315
619,9	10,836	10,34	10,322
620,3	10,589	10,349	10,331
620,7	10,441	10,36	10,343
621,2	9,9843	10,361	10,343
621,6	9,8235	10,372	10,355
622	9,5323	10,375	10,358
622,4	9,4112	10,386	10,368
622,9	9,0226	10,39	10,373
623,3	8,7671	10,4	10,383
623,7	8,3392	10,406	10,389
624,2	8,0025	10,412	10,395
624,6	7,6448	10,42	10,403
625	7,2709	10,426	10,408
625,4	7,0101	10,433	10,416
625,9	6,6773	10,44	10,422
626,3	6,3672	10,45	10,433
626,7	6,05	10,458	10,441
627,1	5,7053	10,459	10,441
627,6	5,5211	10,469	10,451
628	5,206	10,475	10,458
628,4	4,8768	10,484	10,466
628,9	4,559	10,491	10,474
629,3	4,2836	10,505	10,488
629,7	3,7459	10,505	10,488
630,1	3,4692	10,512	10,494
630,6	2,4377	10,518	10,501
631	-0,82084	10,526	10,509
631,4	-0,82089	10,534	10,517
631,8	-0,82094	10,542	10,524
632,3	-0,82099	10,553	10,536
632,7	-0,82105	10,553	10,536
633,1	-0,8212	10,562	10,545
633,6	-0,82325	10,567	10,55
634	-0,82529	10,576	10,559
634,4	-0,82734	10,582	10,565
634,8	-0,82938	10,599	10,582
635,3	-0,81648	10,6	10,582
635,7	-0,81794	10,6	10,583
636,1	-0,8194	10,612	10,595
636,6	-0,81741	10,617	10,6
636,7		10,621	10,604