File: Tests de traction/Fichiers source/04_07_2016/Sample_6_250N.txt
Time (s)	Load (N)	Machine Extension (mm)	Extension from Preload (mm)
0
0,2118	0,0022117	0,000085585	-0,092827
0,4236	0,0068504	0,012811	-0,080102
0,6353	0,20542	0,088529	-0,0043844
0,8471	0,22218	0,091234	-0,0016789
1,059	0,21418	0,093403	0,00049045
1,271	0,21538	0,1026	0,0096887
1,482	0,24421	0,10751	0,014595
1,694	0,28361	0,11337	0,020454
1,906	0,27766	0,11345	0,020539
2,118	0,27171	0,11354	0,020625
2,33	0,30052	0,11969	0,026777
2,541	0,33023	0,1235	0,030586
2,753	0,347	0,12616	0,033242
2,965	0,39355	0,12929	0,036372
3,177	0,42419	0,13201	0,039097
3,388	0,47571	0,13697	0,044054
3,6	0,52869	0,13963	0,046712
3,812	0,61223	0,14323	0,050322
4,024	0,72454	0,14746	0,054544
4,236	0,86294	0,15295	0,060036
4,447	1,0806	0,16052	0,067605
4,659	1,0666	0,16059	0,067673
4,871	1,0526	0,16065	0,067741
5,083	1,0385	0,16072	0,06781
5,294	1,2749	0,16882	0,075909
5,506	1,3637	0,17237	0,079458
5,718	1,3797	0,17414	0,081229
5,93	1,4836	0,17789	0,084978
6,142	1,5572	0,18241	0,089501
6,353	1,6451	0,18606	0,093148
6,565	1,7066	0,18985	0,096937
6,777	1,7923	0,19401	0,1011
6,989	1,8655	0,19785	0,10494
7,2	2,0562	0,20708	0,11417
7,412	2,107	0,2091	0,11619
7,624	2,0848	0,20914	0,11623
7,836	2,0625	0,20918	0,11627
8,048	2,2045	0,21437	0,12146
8,259	2,3046	0,21834	0,12543
8,471	2,3392	0,22137	0,12846
8,683	2,3566	0,22453	0,13161
8,895	2,429	0,22895	0,13604
9,106	2,4778	0,23263	0,13972
9,318	2,5122	0,23631	0,1434
9,53	2,5222	0,23888	0,14597
9,742	2,3372	0,2438	0,15089
9,954	2,4938	0,249	0,15609
10,17	2,5507	0,25083	0,15792
10,38	2,6907	0,25541	0,16249
10,59	2,7586	0,2583	0,16539
10,8	2,8401	0,26086	0,16795
11,01	2,9215	0,26425	0,17133
11,22	3,0029	0,26712	0,17421
11,44	3,0587	0,27	0,17708
11,65	3,1132	0,27292	0,18
11,86	3,2192	0,27756	0,18465
12,07	3,3011	0,28098	0,18806
12,28	3,3883	0,28529	0,19238
12,49	3,4409	0,28911	0,1962
12,71	3,4949	0,29293	0,20002
12,92	3,6574	0,30266	0,20974
13,13	3,7031	0,30483	0,21191
13,34	3,677	0,30492	0,212
13,55	3,651	0,30501	0,2121
13,77	3,625	0,3051	0,21219
13,98	3,8754	0,31373	0,22082
14,19	3,9033	0,31595	0,22303
14,4	3,946	0,31873	0,22581
14,61	4,0071	0,32378	0,23087
14,82	4,0712	0,32778	0,23487
15,04	4,1296	0,33008	0,23717
15,25	4,1917	0,33476	0,24185
15,46	4,2589	0,33864	0,24573
15,67	4,4112	0,34552	0,25261
15,88	4,4263	0,34813	0,25522
16,1	4,3708	0,3484	0,25548
16,31	4,4046	0,35238	0,25947
16,52	4,5266	0,35684	0,26393
16,73	4,5497	0,35982	0,2669
16,94	4,5729	0,36212	0,26921
17,15	4,604	0,36502	0,2721
17,37	4,6943	0,3692	0,27629
17,58	4,7664	0,37342	0,2805
17,79	4,7968	0,37641	0,2835
18	4,869	0,37963	0,28672
18,21	4,9596	0,38423	0,29132
18,42	5,0347	0,38804	0,29512
18,64	5,157	0,39341	0,3005
18,85	5,3844	0,40216	0,30925
19,06	5,3137	0,4022	0,30929
19,27	5,2431	0,40224	0,30933
19,48	5,2238	0,40228	0,30937
19,7	5,2054	0,40232	0,30941
19,91	5,4551	0,41077	0,31785
20,12	5,508	0,4137	0,32078
20,33	5,561	0,4187	0,32579
20,54	5,6168	0,42296	0,33005
20,75	5,6757	0,42656	0,33365
20,97	5,7345	0,43017	0,33725
21,18	5,7933	0,43377	0,34086
21,39	5,8521	0,43737	0,34446
21,6	6,143	0,44884	0,35592
21,81	6,0863	0,44888	0,35596
22,02	6,0296	0,44891	0,356
22,24	5,973	0,44895	0,35604
22,45	5,9576	0,44899	0,35608
22,66	6,1745	0,45802	0,36511
22,87	6,1991	0,46034	0,36743
23,08	6,2238	0,46363	0,37071
23,3	6,2576	0,46874	0,37583
23,51	6,2947	0,47188	0,37896
23,72	6,3504	0,47492	0,38201
23,93	6,448	0,47963	0,38671
24,14	6,4917	0,48325	0,39034
24,35	6,7678	0,49578	0,40286
24,57	6,7093	0,49576	0,40285
24,78	6,6508	0,49574	0,40283
24,99	6,5923	0,49572	0,40281
25,2	6,5447	0,49571	0,40279
25,41	6,6503	0,50031	0,4074
25,63	6,7834	0,50642	0,4135
25,84	6,7575	0,50947	0,41655
26,05	6,8136	0,51408	0,42116
26,26	6,8729	0,51748	0,42457
26,47	6,922	0,52199	0,42908
26,68	6,9654	0,52557	0,43265
26,9	7,0087	0,52914	0,43623
27,11	7,1221	0,53455	0,44164
27,32	7,2732	0,54181	0,4489
27,53	7,2115	0,54221	0,4493
27,74	7,1498	0,54222	0,4493
27,95	7,1016	0,54222	0,44931
28,17	7,2097	0,548	0,45509
28,38	7,3096	0,55364	0,46073
28,59	7,2957	0,55633	0,46342
28,8	7,3297	0,55939	0,46648
29,01	7,419	0,56449	0,47158
29,23	7,4397	0,56637	0,47346
29,44	7,5059	0,57179	0,47888
29,65	7,5439	0,57562	0,4827
29,86	7,5819	0,57937	0,48645
30,07	7,8337	0,5907	0,49778
30,28	7,745	0,59071	0,4978
30,5	7,6562	0,59072	0,49781
30,71	7,6049	0,59074	0,49782
30,92	7,5664	0,59075	0,49784
31,13	7,7991	0,60001	0,50709
31,34	7,7905	0,60175	0,50884
31,55	7,7924	0,60561	0,51269
31,77	7,8133	0,60965	0,51674
31,98	7,8435	0,61373	0,52082
32,19	7,8914	0,61577	0,52286
32,4	7,9438	0,62093	0,52802
32,61	7,9609	0,62478	0,53187
32,83	8,0263	0,63101	0,5381
33,04	7,9714	0,63304	0,54013
33,25	7,877	0,63364	0,54073
33,46	7,903	0,63968	0,54677
33,67	7,7561	0,64162	0,54871
33,88	7,7624	0,64733	0,55442
34,1	7,7381	0,64829	0,55538
34,31	7,6993	0,65171	0,5588
34,52	7,6986	0,65491	0,56199
34,73	7,7754	0,65916	0,56625
34,94	7,7921	0,66249	0,56958
35,15	7,8041	0,66528	0,57236
35,37	7,8834	0,67025	0,57734
35,58	7,9329	0,67418	0,58127
35,79	8,0258	0,68143	0,58851
36	8,0317	0,6833	0,59039
36,21	7,9778	0,6836	0,59069
36,43	7,9621	0,68633	0,59342
36,64	8,0728	0,69242	0,59951
36,85	8,0654	0,6951	0,60219
37,06	8,058	0,69667	0,60376
37,27	8,0831	0,7005	0,60759
37,48	8,1368	0,70416	0,61125
37,7	8,1968	0,70805	0,61514
37,91	8,2502	0,71252	0,61961
38,12	8,2848	0,71619	0,62328
38,33	8,3194	0,71987	0,62695
38,54	8,354	0,72354	0,63063
38,76	8,5592	0,73386	0,64094
38,97	8,467	0,73388	0,64097
39,18	8,3748	0,73391	0,641
39,39	8,322	0,73394	0,64103
39,6	8,3598	0,73773	0,64482
39,81	8,529	0,74506	0,65215
40,03	8,5343	0,74727	0,65435
40,24	8,52	0,74916	0,65625
40,45	8,5398	0,75433	0,66142
40,66	8,6061	0,75805	0,66514
40,87	8,6211	0,76149	0,66858
41,08	8,636	0,76453	0,67162
41,3	8,7816	0,77213	0,67922
41,51	8,8234	0,77734	0,68442
41,72	8,7527	0,77737	0,68446
41,93	8,682	0,77741	0,6845
42,14	8,8573	0,78487	0,69196
42,36	8,8359	0,78663	0,69372
42,57	8,8276	0,79031	0,6974
42,78	8,831	0,79288	0,69997
42,99	8,8506	0,79595	0,70304
43,2	8,925	0,80006	0,70715
43,41	8,9785	0,80439	0,71148
43,63	8,9709	0,80715	0,71424
43,84	9,0277	0,81143	0,71852
44,05	9,0681	0,81533	0,72242
44,26	9,1081	0,81931	0,72639
44,47	9,2725	0,82747	0,73456
44,68	9,1886	0,82756	0,73464
44,9	9,1048	0,82764	0,73473
45,11	9,0233	0,82772	0,73481
45,32	9,1942	0,83634	0,74343
45,53	9,1912	0,8394	0,74649
45,74	9,2021	0,84211	0,7492
45,96	9,2258	0,84424	0,75133
46,17	9,292	0,8493	0,75638
46,38	9,3388	0,85429	0,76138
46,59	9,3459	0,85794	0,76503
46,8	9,3747	0,86159	0,76867
47,01	9,4035	0,86523	0,77232
47,23	9,6461	0,87472	0,78181
47,44	9,5851	0,87673	0,78382
47,65	9,4896	0,8768	0,78389
47,86	9,3942	0,87687	0,78396
48,07	9,3438	0,87694	0,78403
48,29	9,5444	0,88579	0,79288
48,5	9,5292	0,88749	0,79457
48,71	9,531	0,89032	0,79741
48,92	9,5619	0,89585	0,80294
49,13	9,6087	0,89926	0,80635
49,34	9,6244	0,90184	0,80892
49,56	9,653	0,90659	0,81368
49,77	9,6851	0,9107	0,81779
49,98	9,7171	0,91508	0,82216
50,19	9,8562	0,92173	0,82882
50,4	9,7828	0,92188	0,82897
50,61	9,7094	0,92203	0,82912
50,83	9,8472	0,92908	0,83617
51,04	9,8416	0,93145	0,83854
51,25	9,836	0,93392	0,841
51,46	9,8376	0,9365	0,84359
51,67	9,869	0,94089	0,84798
51,89	9,9271	0,94589	0,85297
52,1	9,9151	0,94763	0,85471
52,31	9,9159	0,95141	0,85849
52,52	9,9296	0,95533	0,86241
52,73	10,263	0,96818	0,87527
52,94	10,157	0,96825	0,87534
53,16	10,051	0,96833	0,87542
53,37	9,9542	0,9684	0,87549
53,58	9,9039	0,96848	0,87557
53,79	10,182	0,97948	0,88656
54	10,129	0,98028	0,88737
54,21	10,075	0,98315	0,89024
54,43	10,091	0,98608	0,89316
54,64	10,155	0,99106	0,89815
54,85	10,219	0,99506	0,90215
55,06	10,242	0,99862	0,90571
55,27	10,265	1,0022	0,90928
55,49	10,288	1,0058	0,91285
55,7	10,293	1,0096	0,91673
55,91	10,492	1,0192	0,92626
56,12	10,396	1,0192	0,92632
56,33	10,301	1,0193	0,92638
56,54	10,205	1,0194	0,92644
56,76	10,373	1,0274	0,93453
56,97	10,397	1,0292	0,93629
57,18	10,387	1,0321	0,93916
57,39	10,399	1,0354	0,94251
57,6	10,414	1,0406	0,94772
57,82	10,432	1,0441	0,95117
58,03	10,451	1,047	0,95413
58,24	10,504	1,052	0,95904
58,45	10,535	1,0561	0,96316
58,66	10,823	1,0681	0,97521
58,87	10,71	1,068	0,9751
59,09	10,596	1,0679	0,97499
59,3	10,496	1,0678	0,97488
59,51	10,439	1,0677	0,97477
59,72	10,518	1,0721	0,97923
59,93	10,64	1,0781	0,98521
60,14	10,624	1,0811	0,98816
60,36	10,662	1,0864	0,99346
60,57	10,689	1,0891	0,99624
60,78	10,705	1,0933	1,0004
60,99	10,736	1,0976	1,0047
61,2	10,783	1,1014	1,0085
61,42	10,918	1,1087	1,0158
61,63	10,836	1,109	1,0161
61,84	10,754	1,1093	1,0164
62,05	10,883	1,1166	1,0236
62,26	10,881	1,1185	1,0255
62,47	10,88	1,122	1,0291
62,69	10,878	1,1247	1,0318
62,9	10,879	1,1277	1,0348
63,11	10,88	1,1311	1,0382
63,32	10,951	1,1363	1,0434
63,53	10,933	1,1386	1,0457
63,74	10,975	1,1433	1,0503
63,96	11,013	1,1472	1,0543
64,17	11,052	1,1515	1,0586
64,38	11,109	1,1569	1,0639
64,59	11,057	1,1577	1,0648
64,8	11,036	1,1611	1,0682
65,02	11,044	1,1649	1,072
65,23	11,052	1,1683	1,0754
65,44	11,06	1,1711	1,0782
65,65	11,065	1,1737	1,0808
65,86	11,071	1,1771	1,0842
66,07	11,146	1,1811	1,0882
66,29	11,144	1,1848	1,0919
66,5	11,141	1,1874	1,0945
66,71	11,207	1,1921	1,0991
66,92	11,235	1,1968	1,1038
67,13	11,354	1,2035	1,1106
67,35	11,378	1,208	1,115
67,56	11,276	1,208	1,1151
67,77	11,173	1,208	1,1151
67,98	11,245	1,2129	1,12
68,19	11,308	1,2174	1,1245
68,4	11,28	1,2199	1,127
68,62	11,29	1,2236	1,1307
68,83	11,287	1,2263	1,1333
69,04	11,362	1,2315	1,1386
69,25	11,358	1,2345	1,1416
69,46	11,343	1,2369	1,144
69,67	11,429	1,2422	1,1493
69,89	11,466	1,2466	1,1537
70,1	11,649	1,2555	1,1626
70,31	11,555	1,2556	1,1627
70,52	11,46	1,2557	1,1628
70,73	11,366	1,2559	1,1629
70,95	11,621	1,2659	1,173
71,16	11,547	1,2662	1,1733
71,37	11,507	1,2682	1,1752
71,58	11,524	1,2718	1,1789
71,79	11,549	1,2765	1,1836
72	11,569	1,2801	1,1872
72,22	11,604	1,2841	1,1912
72,43	11,633	1,288	1,1951
72,64	11,663	1,2919	1,199
72,85	11,692	1,2958	1,2029
73,06	11,91	1,3052	1,2123
73,27	11,791	1,3052	1,2123
73,49	11,672	1,3052	1,2123
73,7	11,588	1,3052	1,2123
73,91	11,693	1,3103	1,2174
74,12	11,773	1,3164	1,2235
74,33	11,756	1,3184	1,2255
74,55	11,768	1,3214	1,2285
74,76	11,783	1,3261	1,2332
74,97	11,796	1,3303	1,2374
75,18	11,804	1,3339	1,241
75,39	11,813	1,3375	1,2446
75,6	11,842	1,3402	1,2473
75,82	12,197	1,3538	1,2609
76,03	12,051	1,3535	1,2606
76,24	11,904	1,3533	1,2603
76,45	11,794	1,3531	1,2602
76,66	11,724	1,353	1,2601
76,88	11,756	1,3569	1,264
77,09	11,884	1,3645	1,2716
77,3	11,867	1,3678	1,2748
77,51	11,875	1,3717	1,2788
77,72	11,928	1,3758	1,2829
77,93	11,912	1,3788	1,2859
78,15	11,94	1,3834	1,2905
78,36	11,976	1,3874	1,2945
78,57	12,012	1,3919	1,2989
78,78	11,977	1,3949	1,302
78,99	11,936	1,3981	1,3052
79,2	11,965	1,4026	1,3096
79,42	11,906	1,4047	1,3118
79,63	11,916	1,4079	1,315
79,84	11,904	1,4111	1,3182
80,05	11,861	1,4133	1,3204
80,26	11,877	1,4165	1,3236
80,48	11,973	1,4213	1,3284
80,69	11,984	1,4253	1,3323
80,9	11,994	1,4289	1,336
81,11	12,005	1,4327	1,3398
81,32	12,021	1,4366	1,3437
81,53	12,261	1,4471	1,3542
81,75	12,142	1,4471	1,3542
81,96	12,022	1,4472	1,3543
82,17	11,903	1,4472	1,3543
82,38	11,952	1,4522	1,3593
82,59	12,052	1,4575	1,3646
82,8	12,024	1,4595	1,3665
83,02	12,022	1,4623	1,3694
83,23	12,039	1,4671	1,3742
83,44	12,058	1,4713	1,3783
83,65	12,067	1,4751	1,3822
83,86	12,076	1,4788	1,3859
84,08	12,085	1,4826	1,3896
84,29	12,163	1,4878	1,3949
84,5	12,185	1,4921	1,3992
84,71	12,072	1,4923	1,3994
84,92	12,029	1,4957	1,4028
85,13	12,166	1,5036	1,4107
85,35	12,08	1,5038	1,4109
85,56	11,953	1,505	1,4121
85,77	11,948	1,5083	1,4154
85,98	11,974	1,5117	1,4187
86,19	11,982	1,5175	1,4246
86,4	11,949	1,5193	1,4264
86,62	11,914	1,5235	1,4306
86,83	11,965	1,529	1,4361
87,04	11,941	1,5329	1,44
87,25	12,033	1,54	1,4471
87,46	11,963	1,543	1,4501
87,68	11,809	1,5431	1,4502
87,89	11,654	1,5432	1,4503
88,1	11,666	1,5468	1,4539
88,31	11,819	1,5523	1,4594
88,52	11,778	1,555	1,4621
88,73	11,802	1,5579	1,465
88,95	11,828	1,5628	1,4699
89,16	11,857	1,5664	1,4735
89,37	11,886	1,5701	1,4772
89,58	11,916	1,5738	1,4809
89,79	11,945	1,5774	1,4845
90,01	12,125	1,585	1,4921
90,22	12,155	1,5904	1,4975
90,43	12,036	1,5904	1,4975
90,64	11,92	1,5904	1,4975
90,85	11,856	1,5905	1,4975
91,06	12,07	1,5984	1,5055
91,28	12,088	1,6007	1,5078
91,49	12,077	1,6034	1,5104
91,7	12,094	1,6067	1,5138
91,91	12,175	1,6133	1,5203
92,12	12,174	1,6154	1,5225
92,33	12,173	1,6181	1,5252
92,55	12,261	1,6231	1,5302
92,76	12,429	1,6324	1,5395
92,97	12,337	1,6326	1,5397
93,18	12,245	1,6329	1,54
93,39	12,404	1,6399	1,5469
93,61	12,327	1,6405	1,5475
93,82	12,378	1,646	1,5531
94,03	12,358	1,6479	1,555
94,24	12,297	1,65	1,5571
94,45	12,333	1,6533	1,5604
94,66	12,398	1,658	1,5651
94,88	12,413	1,6613	1,5684
95,09	12,432	1,6649	1,572
95,3	12,469	1,6691	1,5761
95,51	12,485	1,6726	1,5797
95,72	12,627	1,6815	1,5886
95,93	12,566	1,6815	1,5886
96,15	12,477	1,6816	1,5887
96,36	12,594	1,6883	1,5954
96,57	12,578	1,6907	1,5978
96,78	12,539	1,694	1,6011
96,99	12,514	1,6966	1,6037
97,21	12,528	1,6994	1,6065
97,42	12,595	1,7032	1,6102
97,63	12,664	1,7079	1,615
97,84	12,603	1,71	1,6171
98,05	12,656	1,7153	1,6224
98,26	12,678	1,7186	1,6257
98,48	12,709	1,7228	1,6299
98,69	12,922	1,7318	1,6389
98,9	12,801	1,7322	1,6393
99,11	12,68	1,7323	1,6394
99,32	12,572	1,7324	1,6395
99,54	12,653	1,7376	1,6447
99,75	12,793	1,7433	1,6503
99,96	12,735	1,7449	1,652
100,2	12,711	1,7486	1,6557
100,4	12,779	1,7538	1,6608
100,6	12,771	1,7565	1,6636
100,8	12,809	1,7599	1,667
101	12,879	1,7638	1,6709
101,2	12,904	1,7677	1,6748
101,4	12,958	1,7739	1,681
101,7	12,912	1,7756	1,6827
101,9	12,901	1,7786	1,6857
102,1	12,937	1,7829	1,69
102,3	12,905	1,7848	1,6919
102,5	13,016	1,7907	1,6978
102,7	12,931	1,7917	1,6988
102,9	12,916	1,795	1,7021
103,1	12,955	1,7986	1,7057
103,3	12,992	1,8033	1,7104
103,6	12,985	1,806	1,7131
103,8	13,014	1,8097	1,7168
104	13,079	1,8143	1,7214
104,2	13,118	1,8183	1,7254
104,4	13,291	1,8268	1,7339
104,6	13,18	1,8269	1,7339
104,8	13,07	1,8269	1,734
105	12,982	1,8281	1,7352
105,3	13,243	1,8374	1,7445
105,5	13,147	1,8376	1,7447
105,7	13,063	1,84	1,7471
105,9	13,094	1,8438	1,7509
106,1	13,14	1,8479	1,755
106,3	13,182	1,8519	1,759
106,5	13,216	1,8558	1,7629
106,7	13,25	1,8597	1,7668
106,9	13,267	1,8636	1,7707
107,2	13,297	1,8677	1,7748
107,4	13,389	1,8755	1,7825
107,6	13,325	1,8764	1,7835
107,8	13,23	1,8764	1,7835
108	13,239	1,8799	1,787
108,2	13,336	1,8853	1,7923
108,4	13,33	1,8878	1,7949
108,6	13,273	1,8904	1,7975
108,9	13,291	1,8933	1,8003
109,1	13,332	1,8972	1,8043
109,3	13,376	1,9013	1,8084
109,5	13,379	1,9048	1,8119
109,7	13,395	1,9084	1,8155
109,9	13,528	1,9151	1,8222
110,1	13,471	1,9176	1,8247
110,3	13,531	1,9219	1,829
110,5	13,527	1,9246	1,8317
110,8	13,434	1,9251	1,8322
111	13,6	1,9325	1,8395
111,2	13,518	1,9333	1,8404
111,4	13,444	1,9353	1,8424
111,6	13,463	1,9393	1,8464
111,8	13,541	1,9443	1,8514
112	13,523	1,9474	1,8545
112,2	13,498	1,9502	1,8573
112,5	13,574	1,955	1,8621
112,7	13,591	1,9587	1,8658
112,9	13,711	1,9645	1,8716
113,1	13,8	1,9704	1,8775
113,3	13,682	1,9704	1,8775
113,5	13,564	1,9704	1,8775
113,7	13,73	1,9778	1,8849
113,9	13,696	1,9796	1,8867
114,1	13,662	1,9821	1,8892
114,4	13,636	1,9852	1,8923
114,6	13,626	1,9884	1,8955
114,8	13,723	1,9938	1,9009
115	13,721	1,9973	1,9044
115,2	13,718	2,0008	1,9079
115,4	13,749	2,0034	1,9105
115,6	13,856	2,0102	1,9173
115,8	13,827	2,0121	1,9191
116,1	14,045	2,0216	1,9286
116,3	13,932	2,0216	1,9287
116,5	13,82	2,0216	1,9287
116,7	13,708	2,0216	1,9287
116,9	13,855	2,0297	1,9368
117,1	13,836	2,0317	1,9388
117,3	13,825	2,0347	1,9418
117,5	13,854	2,038	1,9451
117,7	13,924	2,0429	1,95
118	13,918	2,0463	1,9534
118,2	13,943	2,0501	1,9572
118,4	13,967	2,0539	1,9609
118,6	13,992	2,0587	1,9658
118,8	14,135	2,0653	1,9724
119	14,026	2,0654	1,9725
119,2	13,918	2,0655	1,9726
119,4	14,054	2,0734	1,9804
119,7	14,048	2,0747	1,9818
119,9	13,978	2,0776	1,9847
120,1	13,977	2,0798	1,9868
120,3	14,069	2,0861	1,9932
120,5	14,095	2,0887	1,9957
120,7	14,037	2,0921	1,9992
120,9	14,064	2,0953	2,0024
121,1	14,148	2,0999	2,007
121,3	14,302	2,1083	2,0154
121,6	14,218	2,1086	2,0157
121,8	14,118	2,1088	2,0159
122	14,211	2,1155	2,0226
122,2	14,219	2,1175	2,0245
122,4	14,257	2,1225	2,0296
122,6	14,184	2,1233	2,0304
122,8	14,158	2,1265	2,0336
123	14,159	2,1291	2,0362
123,3	14,265	2,1355	2,0426
123,5	14,261	2,1387	2,0458
123,7	14,257	2,1418	2,0489
123,9	14,253	2,145	2,0521
124,1	14,443	2,153	2,0601
124,3	14,437	2,1558	2,0629
124,5	14,321	2,1559	2,063
124,7	14,334	2,1606	2,0677
124,9	14,402	2,1651	2,0721
125,2	14,313	2,1651	2,0722
125,4	14,4	2,1707	2,0778
125,6	14,358	2,1726	2,0797
125,8	14,311	2,1754	2,0825
126	14,375	2,1798	2,0869
126,2	14,401	2,1836	2,0907
126,4	14,387	2,1867	2,0938
126,6	14,453	2,1914	2,0985
126,9	14,493	2,1957	2,1028
127,1	14,591	2,2017	2,1088
127,3	14,641	2,2066	2,1137
127,5	14,529	2,2067	2,1138
127,7	14,417	2,2068	2,1139
127,9	14,502	2,2121	2,1191
128,1	14,601	2,2181	2,1252
128,3	14,538	2,2189	2,1259
128,5	14,498	2,2216	2,1287
128,8	14,523	2,2252	2,1323
129	14,564	2,2297	2,1368
129,2	14,587	2,2339	2,141
129,4	14,611	2,2375	2,1446
129,6	14,625	2,2411	2,1482
129,8	14,639	2,2448	2,1518
130	14,842	2,2538	2,1609
130,2	14,751	2,2539	2,161
130,5	14,645	2,254	2,1611
130,7	14,605	2,2567	2,1638
130,9	14,785	2,2653	2,1724
131,1	14,728	2,2656	2,1727
131,3	14,643	2,267	2,1741
131,5	14,699	2,2711	2,1782
131,7	14,714	2,2751	2,1821
131,9	14,76	2,2794	2,1865
132,1	14,778	2,2835	2,1906
132,4	14,794	2,2871	2,1942
132,6	14,81	2,2907	2,1978
132,8	14,825	2,2943	2,2014
133	15,142	2,306	2,2131
133,2	15	2,3059	2,213
133,4	14,857	2,3058	2,2129
133,6	14,741	2,3057	2,2127
133,8	14,653	2,3054	2,2125
134,1	14,937	2,3158	2,2229
134,3	14,887	2,3168	2,2239
134,5	14,864	2,3202	2,2273
134,7	14,879	2,325	2,2321
134,9	14,901	2,3282	2,2353
135,1	14,939	2,3322	2,2393
135,3	14,99	2,3363	2,2433
135,5	15,02	2,3401	2,2472
135,7	15,128	2,3466	2,2536
136	15,211	2,3519	2,259
136,2	15,087	2,352	2,2591
136,4	14,962	2,3521	2,2591
136,6	14,876	2,3528	2,2598
136,8	15,129	2,3626	2,2697
137	15,052	2,3631	2,2702
137,2	15,017	2,3672	2,2743
137,4	15,039	2,371	2,278
137,7	15,093	2,3748	2,2819
137,9	15,06	2,3771	2,2842
138,1	15,151	2,3821	2,2892
138,3	15,174	2,386	2,2931
138,5	15,198	2,39	2,2971
138,7	15,356	2,3978	2,3049
138,9	15,239	2,3979	2,305
139,1	15,121	2,398	2,3051
139,3	15,212	2,4029	2,31
139,6	15,323	2,4093	2,3164
139,8	15,223	2,4095	2,3165
140	15,146	2,412	2,3191
140,2	15,185	2,4157	2,3227
140,4	15,239	2,4201	2,3272
140,6	15,292	2,4244	2,3314
140,8	15,292	2,4278	2,3349
141	15,292	2,4313	2,3384
141,3	15,293	2,4345	2,3416
141,5	15,594	2,4456	2,3527
141,7	15,461	2,4456	2,3527
141,9	15,327	2,4456	2,3527
142,1	15,219	2,4456	2,3527
142,3	15,365	2,4521	2,3592
142,5	15,458	2,458	2,3651
142,7	15,379	2,4585	2,3656
142,9	15,348	2,4621	2,3692
143,2	15,352	2,4655	2,3726
143,4	15,425	2,469	2,3761
143,6	15,464	2,4734	2,3804
143,8	15,43	2,476	2,3831
144	15,49	2,4809	2,3879
144,2	15,573	2,4873	2,3944
144,4	15,619	2,4916	2,3987
144,6	15,511	2,4916	2,3987
144,9	15,473	2,4953	2,4024
145,1	15,551	2,4987	2,4058
145,3	15,625	2,5044	2,4115
145,5	15,527	2,5047	2,4118
145,7	15,51	2,508	2,4151
145,9	15,5	2,5114	2,4185
146,1	15,527	2,5153	2,4224
146,3	15,554	2,5191	2,4261
146,5	15,58	2,5228	2,4299
146,8	15,606	2,5265	2,4336
147	15,628	2,5302	2,4373
147,2	15,736	2,5363	2,4434
147,4	15,769	2,5406	2,4476
147,6	15,652	2,5409	2,448
147,8	15,587	2,5435	2,4506
148	15,762	2,5495	2,4566
148,2	15,699	2,5525	2,4596
148,5	15,659	2,5532	2,4603
148,7	15,63	2,5564	2,4635
148,9	15,686	2,5601	2,4672
149,1	15,721	2,5651	2,4722
149,3	15,757	2,5692	2,4763
149,5	15,747	2,5715	2,4785
149,7	15,818	2,5765	2,4836
149,9	16,004	2,5839	2,491
150,1	16,153	2,5913	2,4984
150,4	15,995	2,5913	2,4984
150,6	15,837	2,5913	2,4983
150,8	15,709	2,5912	2,4983
151	15,61	2,5912	2,4983
151,2	15,961	2,6016	2,5086
151,4	15,861	2,6035	2,5106
151,6	15,866	2,6063	2,5134
151,8	15,897	2,6112	2,5183
152,1	15,904	2,6151	2,5222
152,3	15,911	2,6185	2,5256
152,5	15,907	2,6207	2,5278
152,7	16,004	2,6268	2,5339
152,9	15,981	2,6304	2,5375
153,1	16,152	2,6369	2,544
153,3	16,027	2,6369	2,544
153,5	15,902	2,6371	2,5441
153,8	16,087	2,6449	2,552
154	16,055	2,6467	2,5538
154,2	15,967	2,6488	2,5559
154,4	15,959	2,6518	2,5589
154,6	16,097	2,6577	2,5648
154,8	16,086	2,6611	2,5682
155	16,066	2,6643	2,5714
155,2	16,051	2,6666	2,5737
155,4	16,137	2,6716	2,5787
155,7	16,394	2,6819	2,589
155,9	16,298	2,6831	2,5902
156,1	16,156	2,6831	2,5902
156,3	16,015	2,6832	2,5902
156,5	16,034	2,6875	2,5946
156,7	16,221	2,694	2,6011
156,9	16,133	2,6944	2,6015
157,1	16,106	2,6977	2,6048
157,4	16,098	2,7012	2,6083
157,6	16,186	2,7068	2,6139
157,8	16,176	2,71	2,6171
158	16,147	2,7129	2,62
158,2	16,203	2,7173	2,6244
158,4	16,26	2,722	2,6291
158,6	16,514	2,7315	2,6386
158,8	16,372	2,7316	2,6386
159	16,231	2,7316	2,6387
159,3	16,089	2,7317	2,6388
159,5	16,105	2,7356	2,6427
159,7	16,247	2,742	2,6491
159,9	16,231	2,7453	2,6523
160,1	16,226	2,7472	2,6543
160,3	16,263	2,7524	2,6595
160,5	16,271	2,7558	2,6629
160,7	16,263	2,7589	2,666
161	16,308	2,7633	2,6704
161,2	16,319	2,7672	2,6743
161,4	16,445	2,7732	2,6803
161,6	16,56	2,7804	2,6875
161,8	16,417	2,7804	2,6875
162	16,274	2,7805	2,6876
162,2	16,136	2,7805	2,6876
162,4	16,388	2,7901	2,6971
162,6	16,366	2,7908	2,6979
162,9	16,29	2,793	2,7001
163,1	16,296	2,7965	2,7036
163,3	16,353	2,802	2,7091
163,5	16,361	2,8056	2,7127
163,7	16,363	2,8093	2,7163
163,9	16,365	2,8129	2,72
164,1	16,367	2,8165	2,7235
164,3	16,547	2,8239	2,731
164,6	16,549	2,8277	2,7348
164,8	16,392	2,8278	2,7349
165	16,238	2,8278	2,7349
165,2	16,274	2,8317	2,7388
165,4	16,437	2,8381	2,7452
165,6	16,348	2,8393	2,7464
165,8	16,331	2,8423	2,7494
166	16,338	2,8469	2,754
166,2	16,419	2,8522	2,7593
166,5	16,404	2,8554	2,7625
166,7	16,388	2,8582	2,7653
166,9	16,345	2,8608	2,7679
167,1	16,654	2,8723	2,7794
167,3	16,524	2,8732	2,7803
167,5	16,376	2,8735	2,7806
167,7	16,229	2,8741	2,7812
167,9	16,151	2,8752	2,7823
168,2	16,435	2,8849	2,792
168,4	16,36	2,886	2,793
168,6	16,297	2,8893	2,7964
168,8	16,284	2,8921	2,7992
169	16,344	2,8975	2,8046
169,2	16,314	2,8996	2,8067
169,4	16,327	2,904	2,8111
169,6	16,355	2,9079	2,815
169,8	16,377	2,9117	2,8188
170,1	16,559	2,9197	2,8268
170,3	16,472	2,9215	2,8286
170,5	16,312	2,9216	2,8287
170,7	16,247	2,9236	2,8307
170,9	16,418	2,9322	2,8393
171,1	16,354	2,9325	2,8396
171,3	16,254	2,9341	2,8412
171,5	16,264	2,9383	2,8453
171,8	16,289	2,9428	2,8499
172	16,292	2,9459	2,8529
172,2	16,306	2,9508	2,8579
172,4	16,288	2,954	2,8611
172,6	16,278	2,9565	2,8635
172,8	16,415	2,9639	2,871
173	16,305	2,965	2,872
173,2	16,201	2,9677	2,8748
173,4	16,386	2,9735	2,8806
173,7	16,285	2,9741	2,8812
173,9	16,4	2,9805	2,8876
174,1	16,299	2,9809	2,888
174,3	16,23	2,9839	2,891
174,5	16,237	2,9877	2,8947
174,7	16,299	2,9937	2,9008
174,9	16,301	2,9957	2,9028
175,1	16,286	2,9988	2,9059
175,4	16,271	3,0019	2,909
175,6	16,336	3,0076	2,9147
175,8	16,26	3,0111	2,9182
176	16,455	3,019	2,9261
176,2	16,323	3,0193	2,9263
176,4	16,19	3,0195	2,9266
176,6	16,168	3,0238	2,9309
176,8	16,284	3,029	2,9361
177	16,193	3,0303	2,9374
177,3	16,178	3,0344	2,9415
177,5	16,158	3,0372	2,9443
177,7	16,235	3,0419	2,949
177,9	16,201	3,0445	2,9516
178,1	16,228	3,0488	2,9558
178,3	16,276	3,0529	2,96
178,5	16,295	3,0567	2,9638
178,7	16,448	3,0656	2,9727
179	16,307	3,0656	2,9727
179,2	16,167	3,0657	2,9728
179,4	16,121	3,0681	2,9752
179,6	16,315	3,0753	2,9824
179,8	16,187	3,0763	2,9834
180	16,14	3,0795	2,9865
180,2	16,154	3,0828	2,9899
180,4	16,266	3,0886	2,9957
180,6	16,19	3,0902	2,9973
180,9	16,196	3,094	3,0011
181,1	16,217	3,098	3,0051
181,3	16,238	3,102	3,0091
181,5	16,258	3,1069	3,014
181,7	16,385	3,1127	3,0198
181,9	16,251	3,1128	3,0199
182,1	16,153	3,1153	3,0224
182,3	16,306	3,1224	3,0295
182,6	16,234	3,1232	3,0303
182,8	16,169	3,1256	3,0327
183	16,17	3,1283	3,0354
183,2	16,198	3,1327	3,0398
183,4	16,235	3,1372	3,0443
183,6	16,214	3,1404	3,0475
183,8	16,195	3,1433	3,0504
184	16,224	3,1478	3,0549
184,2	16,425	3,1564	3,0635
184,5	16,453	3,1614	3,0685
184,7	16,282	3,1615	3,0685
184,9	16,111	3,1615	3,0686
185,1	15,995	3,1615	3,0686
185,3	16,051	3,1662	3,0733
185,5	16,209	3,1724	3,0794
185,7	16,14	3,175	3,0821
185,9	16,14	3,1778	3,0849
186,2	16,168	3,1834	3,0905
186,4	16,182	3,1865	3,0935
186,6	16,132	3,1895	3,0965
186,8	16,178	3,1938	3,1009
187	16,317	3,201	3,1081
187,2	16,214	3,202	3,1091
187,4	16,177	3,2057	3,1128
187,6	16,191	3,209	3,116
187,8	16,141	3,2119	3,119
188,1	16,155	3,2173	3,1244
188,3	16,084	3,2181	3,1252
188,5	16,026	3,2203	3,1274
188,7	15,999	3,2233	3,1304
188,9	16,067	3,2288	3,1359
189,1	16,059	3,2324	3,1394
189,3	16,006	3,2351	3,1422
189,5	16,036	3,2391	3,1462
189,8	16,074	3,244	3,1511
190	16,129	3,2487	3,1558
190,2	16,143	3,2529	3,1599
190,4	16,034	3,2554	3,1625
190,6	15,958	3,258	3,1651
190,8	15,956	3,2614	3,1685
191	15,973	3,2658	3,1729
191,2	15,954	3,2675	3,1746
191,4	15,925	3,2703	3,1774
191,7	15,9	3,2733	3,1804
191,9	15,937	3,2783	3,1854
192,1	15,928	3,281	3,1881
192,3	15,887	3,2839	3,191
192,5	15,913	3,2893	3,1963
192,7	15,983	3,2936	3,2007
192,9	16,077	3,3012	3,2082
193,1	15,921	3,3012	3,2083
193,4	15,765	3,3012	3,2083
193,6	15,872	3,3069	3,214
193,8	15,846	3,3105	3,2175
194	15,819	3,3137	3,2208
194,2	15,792	3,3162	3,2233
194,4	15,748	3,3187	3,2258
194,6	15,762	3,3243	3,2314
194,8	15,73	3,3272	3,2343
195	15,661	3,3305	3,2376
195,3	15,602	3,3348	3,2418
195,5	15,492	3,3388	3,2459
195,7	15,403	3,3442	3,2513
195,9	15,45	3,3518	3,2589
196,1	15,153	3,3519	3,259
196,3	14,87	3,352	3,2591
196,5	14,719	3,3521	3,2592
196,7	14,943	3,3614	3,2685
197	14,826	3,3623	3,2694
197,2	14,659	3,3644	3,2715
197,4	14,633	3,3686	3,2757
197,6	14,65	3,3738	3,2809
197,8	14,502	3,3772	3,2843
198	14,115	3,3808	3,2879
198,2	13,745	3,3842	3,2912
198,4	13,594	3,3891	3,2961
198,6	13,609	3,3958	3,3029
198,9	13,532	3,3986	3,3057
199,1	13,325	3,3991	3,3062
199,3	13,119	3,3992	3,3063
199,5	13,273	3,4067	3,3137
199,7	13,245	3,4096	3,3166
199,9	13,102	3,4111	3,3182
200,1	13,078	3,4143	3,3214
200,3	13,155	3,4188	3,3259
200,6	13,115	3,4231	3,3302
200,8	13,074	3,4262	3,3333
201	13,034	3,4292	3,3363
201,2	13,095	3,4338	3,3409
201,4	13,273	3,4432	3,3503
201,6	13,051	3,4433	3,3504
201,8	12,869	3,4434	3,3505
202	12,753	3,4441	3,3512
202,2	12,914	3,4516	3,3587
202,5	12,983	3,4568	3,3639
202,7	12,862	3,4572	3,3643
202,9	12,804	3,4608	3,3679
203,1	12,793	3,4641	3,3712
203,3	12,781	3,4683	3,3754
203,5	12,77	3,4724	3,3795
203,7	12,759	3,4761	3,3832
203,9	12,685	3,4799	3,387
204,2	12,664	3,484	3,3911
204,4	12,789	3,4909	3,398
204,6	12,601	3,493	3,4
204,8	12,402	3,4933	3,4004
205	12,403	3,4974	3,4045
205,2	12,423	3,5017	3,4088
205,4	12,371	3,5047	3,4118
205,6	12,233	3,5061	3,4132
205,8	12,214	3,5106	3,4177
206,1	12,163	3,5136	3,4207
206,3	12,178	3,5185	3,4256
206,5	12,11	3,522	3,4291
206,7	12,043	3,5253	3,4324
206,9	12,022	3,5293	3,4363
207,1	12,017	3,534	3,441
207,3	12,19	3,5428	3,4499
207,5	11,974	3,5429	3,45
207,8	11,76	3,5431	3,4502
208	11,651	3,5432	3,4503
208,2	11,867	3,5526	3,4597
208,4	11,758	3,553	3,4601
208,6	11,689	3,5558	3,4629
208,8	11,675	3,5594	3,4665
209	11,722	3,5643	3,4714
209,2	11,684	3,5676	3,4747
209,4	11,645	3,5708	3,4779
209,7	11,608	3,5742	3,4812
209,9	11,73	3,5813	3,4883
210,1	11,649	3,5832	3,4903
210,3	11,624	3,5865	3,4936
210,5	11,642	3,5921	3,4992
210,7	11,506	3,5921	3,4992
210,9	11,449	3,5949	3,502
211,1	11,56	3,6006	3,5077
211,4	11,471	3,6027	3,5098
211,6	11,421	3,6048	3,5119
211,8	11,445	3,6087	3,5158
212	11,474	3,6138	3,5208
212,2	11,431	3,6162	3,5233
212,4	11,426	3,6204	3,5274
212,6	11,465	3,6249	3,532
212,8	11,554	3,6315	3,5386
213	11,591	3,6369	3,544
213,3	11,409	3,6369	3,544
213,5	11,258	3,637	3,544
213,7	11,225	3,6392	3,5463
213,9	11,393	3,6467	3,5538
214,1	11,289	3,6479	3,555
214,3	11,242	3,6511	3,5582
214,5	11,238	3,6547	3,5618
214,7	11,282	3,66	3,5671
215	11,287	3,6634	3,5705
215,2	11,274	3,667	3,5741
215,4	11,262	3,6707	3,5778
215,6	11,25	3,6744	3,5814
215,8	11,24	3,6786	3,5857
216	11,357	3,6855	3,5926
216,2	11,197	3,6856	3,5927
216,4	11,044	3,6858	3,5928
216,6	11,173	3,6927	3,5998
216,9	11,157	3,6949	3,602
217,1	11,08	3,6974	3,6045
217,3	11,053	3,6996	3,6067
217,5	11,073	3,7051	3,6122
217,7	11,094	3,7095	3,6166
217,9	11,051	3,7123	3,6194
218,1	11,016	3,7151	3,6222
218,3	11,093	3,7201	3,6272
218,6	11,287	3,7308	3,6379
218,8	11,133	3,7309	3,6379
219	10,979	3,7309	3,638
219,2	10,861	3,731	3,638
219,4	10,968	3,7368	3,6439
219,6	10,996	3,7431	3,6502
219,8	10,903	3,7434	3,6505
220	10,855	3,7461	3,6532
220,2	10,892	3,7495	3,6566
220,5	10,901	3,7548	3,6619
220,7	10,908	3,7581	3,6652
220,9	10,892	3,7615	3,6686
221,1	10,873	3,7648	3,6719
221,3	10,999	3,773	3,6801
221,5	10,977	3,7774	3,6845
221,7	10,814	3,7775	3,6846
221,9	10,68	3,7776	3,6847
222,2	10,722	3,7823	3,6894
222,4	10,81	3,7882	3,6953
222,6	10,706	3,7889	3,696
222,8	10,71	3,7927	3,6998
223	10,692	3,795	3,7021
223,2	10,757	3,8012	3,7083
223,4	10,719	3,8042	3,7113
223,6	10,68	3,8072	3,7143
223,8	10,68	3,8108	3,7179
224,1	10,733	3,8161	3,7232
224,3	10,819	3,8236	3,7307
224,5	10,705	3,824	3,7311
224,7	10,579	3,8241	3,7312
224,9	10,723	3,8322	3,7393
225,1	10,65	3,8334	3,7405
225,3	10,565	3,8362	3,7433
225,5	10,528	3,8383	3,7454
225,8	10,501	3,841	3,7481
226	10,519	3,8455	3,7526
226,2	10,565	3,8505	3,7576
226,4	10,527	3,8536	3,7607
226,6	10,49	3,8566	3,7637
226,8	10,525	3,8607	3,7678
227	10,661	3,8691	3,7762
227,2	10,597	3,8717	3,7788
227,4	10,463	3,8718	3,7788
227,7	10,329	3,8718	3,7789
227,9	10,477	3,879	3,786
228,1	10,441	3,8835	3,7906
228,3	10,373	3,8845	3,7916
228,5	10,344	3,8878	3,7949
228,7	10,319	3,8902	3,7973
228,9	10,394	3,8958	3,8029
229,1	10,408	3,8989	3,806
229,4	10,383	3,9023	3,8094
229,6	10,417	3,9072	3,8142
229,8	10,423	3,9109	3,818
230	10,61	3,9209	3,828
230,2	10,549	3,9236	3,8307
230,4	10,388	3,9237	3,8308
230,6	10,227	3,9238	3,8309
230,8	10,144	3,9239	3,831
231	10,154	3,9269	3,834
231,3	10,319	3,9342	3,8412
231,5	10,241	3,9365	3,8436
231,7	10,245	3,94	3,8471
231,9	10,298	3,9454	3,8525
232,1	10,29	3,9492	3,8563
232,3	10,282	3,9528	3,8599
232,5	10,273	3,9565	3,8636
232,7	10,265	3,96	3,8671
233	10,433	3,969	3,8761
233,2	10,313	3,9697	3,8768
233,4	10,188	3,9698	3,8769
233,6	10,072	3,9704	3,8774
233,8	10,224	3,977	3,8841
234	10,236	3,9817	3,8888
234,2	10,156	3,9827	3,8898
234,4	10,125	3,9858	3,8929
234,6	10,14	3,9907	3,8978
234,9	10,176	3,9944	3,9015
235,1	10,161	3,9981	3,9052
235,3	10,146	4,0018	3,9089
235,5	10,131	4,0055	3,9126
235,7	10,358	4,0157	3,9228
235,9	10,209	4,016	3,9231
236,1	10,059	4,0163	3,9234
236,3	9,9491	4,0168	3,9239
236,6	9,9562	4,0199	3,927
236,8	10,122	4,0282	3,9353
237	10,05	4,0298	3,9369
237,2	9,9879	4,033	3,9401
237,4	9,9541	4,0362	3,9433
237,6	9,9977	4,0409	3,948
237,8	9,9215	4,043	3,9501
238	9,9728	4,048	3,9551
238,2	9,9659	4,0518	3,9589
238,5	9,959	4,0555	3,9626
238,7	10,094	4,0633	3,9704
238,9	10,007	4,0656	3,9726
239,1	9,8534	4,0657	3,9728
239,3	9,7371	4,0659	3,973
239,5	9,9055	4,0741	3,9812
239,7	9,8449	4,0763	3,9834
239,9	9,7375	4,0783	3,9854
240,2	9,7162	4,0815	3,9886
240,4	9,7292	4,0866	3,9937
240,6	9,7263	4,0899	3,997
240,8	9,6767	4,0936	4,0007
241	9,674	4,0979	4,005
241,2	9,6414	4,1015	4,0086
241,4	9,6135	4,1057	4,0128
241,6	9,6435	4,1124	4,0195
241,8	9,449	4,1126	4,0197
242,1	9,2545	4,1128	4,0199
242,3	9,2817	4,1192	4,0263
242,5	9,1254	4,1239	4,031
242,7	8,9587	4,1251	4,0322
242,9	8,9087	4,1275	4,0345
243,1	8,8274	4,1307	4,0378
243,3	8,7952	4,1373	4,0444
243,5	8,7054	4,1399	4,047
243,8	8,6039	4,1433	4,0504
244	8,5204	4,147	4,0541
244,2	8,4385	4,1507	4,0578
244,4	8,3855	4,1546	4,0617
244,6	8,3423	4,1631	4,0701
244,8	8,0524	4,1632	4,0703
245	7,8909	4,1633	4,0704
245,2	7,7554	4,1634	4,0705
245,4	7,8256	4,1726	4,0797
245,7	7,7197	4,1736	4,0807
245,9	7,6278	4,1771	4,0842
246,1	7,536	4,1804	4,0875
246,3	7,4244	4,1857	4,0928
246,5	7,2954	4,1891	4,0961
246,7	7,1669	4,1916	4,0987
246,9	7,1051	4,1969	4,104
247,1	7,0289	4,2035	4,1106
247,4	6,8911	4,2058	4,1129
247,6	6,7406	4,2059	4,113
247,8	6,7267	4,2108	4,1179
248	6,6615	4,2142	4,1213
248,2	6,6346	4,2196	4,1267
248,4	6,524	4,2202	4,1273
248,6	6,4718	4,2236	4,1307
248,8	6,4616	4,227	4,1341
249	6,4234	4,2317	4,1388
249,3	6,3961	4,2337	4,1408
249,5	6,3781	4,2385	4,1456
249,7	6,3475	4,2424	4,1495
249,9	6,3048	4,2459	4,153
250,1	6,3998	4,2548	4,1618
250,3	6,2691	4,255	4,162
250,5	6,1384	4,2551	4,1622
250,7	6,0888	4,2562	4,1633
251	6,1999	4,2657	4,1728
251,2	6,1323	4,2662	4,1733
251,4	6,0563	4,2691	4,1762
251,6	6,0369	4,2713	4,1784
251,8	6,0215	4,2769	4,1839
252	5,9947	4,2805	4,1876
252,2	5,9679	4,284	4,1911
252,4	5,9325	4,2872	4,1943
252,6	5,9938	4,294	4,2011
252,9	5,9101	4,2959	4,203
253,1	5,96	4,3047	4,2118
253,3	5,8221	4,3048	4,2119
253,5	5,7113	4,3048	4,2119
253,7	5,6578	4,3049	4,212
253,9	5,7231	4,3134	4,2205
254,1	5,6633	4,3151	4,2222
254,3	5,6179	4,3182	4,2253
254,6	5,5896	4,322	4,229
254,8	5,6243	4,3267	4,2338
255	5,5745	4,3304	4,2375
255,2	5,538	4,3342	4,2413
255,4	5,5108	4,338	4,2451
255,6	5,4835	4,3418	4,2489
255,8	5,5952	4,353	4,2601
256	5,4518	4,353	4,2601
256,3	5,3085	4,353	4,2601
256,5	5,2523	4,353	4,2601
256,7	5,253	4,3563	4,2634
256,9	5,2852	4,3618	4,2689
257,1	5,2132	4,3645	4,2716
257,3	5,1916	4,367	4,2741
257,5	5,2395	4,3746	4,2817
257,7	5,1568	4,3759	4,2829
257,9	5,0874	4,3784	4,2855
258,2	5,0639	4,3827	4,2898
258,4	5,0503	4,3886	4,2957
258,6	5,0501	4,3925	4,2996
258,8	4,9705	4,3961	4,3032
259	4,8733	4,3966	4,3037
259,2	4,8856	4,4018	4,3089
259,4	4,8641	4,4057	4,3127
259,6	4,8049	4,4075	4,3146
259,9	4,7516	4,4102	4,3173
260,1	4,7576	4,4134	4,3204
260,3	4,7417	4,417	4,3241
260,5	4,719	4,4224	4,3294
260,7	4,6956	4,4258	4,3329
260,9	4,6624	4,4292	4,3363
261,1	4,6292	4,4326	4,3397
261,3	4,6263	4,438	4,3451
261,5	4,6304	4,4447	4,3518
261,8	4,5258	4,4449	4,3519
262	4,4286	4,445	4,3521
262,2	4,4251	4,4497	4,3568
262,4	4,4515	4,4553	4,3624
262,6	4,3974	4,4564	4,3635
262,8	4,3525	4,4602	4,3673
263	4,3188	4,4627	4,3698
263,2	4,3272	4,4678	4,3749
263,5	4,2853	4,4713	4,3783
263,7	4,2435	4,4738	4,3809
263,9	4,2389	4,478	4,3851
264,1	4,2092	4,4826	4,3896
264,3	4,3233	4,4961	4,4032
264,5	4,138	4,4959	4,403
264,7	4,0271	4,4957	4,4028
264,9	3,9684	4,4957	4,4028
265,1	3,9098	4,4957	4,4028
265,4	3,8764	4,4963	4,4034
265,6	4,0005	4,5064	4,4135
265,8	3,9518	4,5091	4,4162
266	3,9066	4,5129	4,42
266,2	3,8823	4,5164	4,4235
266,4	3,858	4,5209	4,428
266,6	3,8337	4,5247	4,4317
266,8	3,8094	4,5283	4,4354
267,1	3,8185	4,5345	4,4416
267,3	3,761	4,5376	4,4447
267,5	3,6758	4,5379	4,445
267,7	3,7298	4,544	4,4511
267,9	3,6706	4,5454	4,4525
268,1	3,6274	4,5495	4,4566
268,3	3,5958	4,5528	4,4598
268,5	3,5643	4,5545	4,4616
268,7	3,5518	4,558	4,4651
269	3,5738	4,563	4,4701
269,2	3,5372	4,566	4,4731
269,4	3,5025	4,5701	4,4772
269,6	3,4846	4,574	4,4811
269,8	3,4667	4,5778	4,4849
270	3,5399	4,588	4,4951
270,2	3,4146	4,5892	4,4963
270,4	3,3227	4,5893	4,4964
270,7	3,2788	4,5894	4,4964
270,9	3,2423	4,5913	4,4983
271,1	3,306	4,5992	4,5063
271,3	3,2795	4,6017	4,5088
271,5	3,2444	4,6048	4,5118
271,7	3,2245	4,608	4,5151
271,9	3,225	4,6128	4,5199
272,1	3,2012	4,6154	4,5225
272,3	3,1732	4,6189	4,5259
272,6	3,1482	4,6234	4,5305
272,8	3,1232	4,6272	4,5343
273	3,1286	4,6348	4,5419
273,2	3,0321	4,6354	4,5425
273,4	2,9911	4,6355	4,5426
273,6	3,001	4,6409	4,548
273,8	3,0072	4,6453	4,5524
274	2,9765	4,6481	4,5552
274,3	2,9459	4,6498	4,5569
274,5	2,9406	4,6537	4,5608
274,7	2,9433	4,6585	4,5656
274,9	2,9166	4,6617	4,5688
275,1	2,8776	4,6647	4,5718
275,3	2,8556	4,6691	4,5762
275,5	2,8423	4,6731	4,5802
275,7	2,8588	4,6787	4,5858
275,9	2,8148	4,6829	4,59
276,2	2,7454	4,6833	4,5904
276,4	2,7273	4,6861	4,5932
276,6	2,7429	4,6917	4,5987
276,8	2,7272	4,6948	4,6018
277	2,6709	4,6959	4,603
277,2	2,6618	4,6995	4,6066
277,4	2,6527	4,7028	4,6099
277,6	2,6442	4,709	4,6161
277,9	2,6294	4,7109	4,618
278,1	2,6086	4,7144	4,6215
278,3	2,5877	4,7187	4,6258
278,5	2,5669	4,7225	4,6295
278,7	2,5558	4,7279	4,635
278,9	2,5478	4,7358	4,6429
279,1	2,4383	4,7358	4,6429
279,3	2,4025	4,7358	4,6429
279,5	2,3801	4,7359	4,6429
279,8	2,3919	4,7406	4,6477
280	2,413	4,7457	4,6528
280,2	2,3808	4,749	4,6561
280,4	2,3512	4,7528	4,6599
280,6	2,3265	4,7574	4,6645
280,8	2,3018	4,7606	4,6677
281	2,2779	4,7633	4,6704
281,2	2,2591	4,7682	4,6753
281,5	2,2742	4,7786	4,6857
281,7	2,2024	4,7804	4,6874
281,9	2,1274	4,7804	4,6875
282,1	2,1008	4,7804	4,6875
282,3	2,0742	4,7806	4,6877
282,5	2,1258	4,7912	4,6983
282,7	2,0786	4,7923	4,6994
282,9	2,0338	4,7952	4,7023
283,1	2,0172	4,7985	4,7056
283,4	2,0005	4,8033	4,7103
283,6	1,969	4,8063	4,7134
283,8	1,9343	4,8096	4,7167
284	1,9041	4,8144	4,7215
284,2	1,8739	4,818	4,7251
284,4	1,912	4,8292	4,7363
284,6	1,8027	4,8294	4,7365
284,8	1,7672	4,8295	4,7366
285,1	1,7318	4,8296	4,7367
285,3	1,7164	4,8298	4,7369
285,5	1,7689	4,8389	4,746
285,7	1,7408	4,8409	4,748
285,9	1,7127	4,8432	4,7503
286,1	1,686	4,8483	4,7554
286,3	1,6641	4,853	4,7601
286,5	1,6421	4,8569	4,764
286,7	1,6179	4,8592	4,7663
287	1,5957	4,8651	4,7722
287,2	1,5687	4,8698	4,7769
287,4	1,5221	4,871	4,778
287,6	1,5323	4,8766	4,7837
287,8	1,5217	4,8797	4,7868
288	1,481	4,8799	4,7869
288,2	1,4856	4,885	4,7921
288,4	1,4678	4,8876	4,7947
288,7	1,4609	4,8898	4,7969
288,9	1,4599	4,8942	4,8013
289,1	1,459	4,8977	4,8048
289,3	1,458	4,903	4,8101
289,5	1,4542	4,9057	4,8128
289,7	1,4497	4,9095	4,8166
289,9	1,4452	4,9133	4,8204
290,1	1,4588	4,9223	4,8294
290,3	1,419	4,9224	4,8295
290,6	1,3994	4,9226	4,8297
290,8	1,3877	4,9227	4,8298
291	1,4394	4,9316	4,8387
291,2	1,425	4,9335	4,8406
291,4	1,4119	4,9365	4,8435
291,6	1,4195	4,9389	4,846
291,8	1,4468	4,9457	4,8528
292	1,443	4,9474	4,8545
292,3	1,4397	4,9507	4,8577
292,5	1,4409	4,9542	4,8613
292,7	1,4591	4,9591	4,8662
292,9	1,4953	4,9688	4,8759
293,1	1,4629	4,969	4,8761
293,3	1,4484	4,9696	4,8767
293,5	1,4338	4,9697	4,8768
293,7	1,4355	4,9707	4,8778
293,9	1,4991	4,9807	4,8878
294,2	1,4922	4,9819	4,889
294,4	1,4928	4,9847	4,8918
294,6	1,5001	4,9887	4,8958
294,8	1,5091	4,994	4,9011
295	1,5183	4,9978	4,9049
295,2	1,5274	5,0016	4,9086
295,4	1,5451	5,0053	4,9124
295,6	1,56	5,0089	4,916
295,9	1,6126	5,0184	4,9254
296,1	1,5957	5,0184	4,9255
296,3	1,5788	5,0184	4,9255
296,5	1,5619	5,0185	4,9256
296,7	1,612	5,0259	4,933
296,9	1,629	5,0293	4,9364
297,1	1,6312	5,0315	4,9386
297,3	1,6334	5,0341	4,9412
297,5	1,6565	5,039	4,946
297,8	1,6778	5,0429	4,95
298	1,6818	5,0455	4,9526
298,2	1,6984	5,0499	4,957
298,4	1,728	5,0548	4,9619
298,6	1,8074	5,0647	4,9718
298,8	1,7914	5,0649	4,972
299	1,7755	5,0651	4,9721
299,2	1,7596	5,0649	4,972
299,5	1,7768	5,0689	4,976
299,7	1,8469	5,077	4,9841
299,9	1,833	5,0772	4,9843
300,1	1,8241	5,0804	4,9875
300,3	1,853	5,0853	4,9924
300,5	1,882	5,0894	4,9965
300,7	1,9014	5,0913	4,9984
300,9	1,9204	5,0965	5,0036
301,1	1,9443	5,0999	5,0069
301,4	1,984	5,1084	5,0155
301,6	1,9821	5,1087	5,0158
301,8	1,9667	5,109	5,0161
302	2,0329	5,1162	5,0232
302,2	2,0303	5,1166	5,0237
302,4	2,0308	5,1221	5,0292
302,6	2,0391	5,1238	5,0309
302,8	2,0474	5,1264	5,0335
303,1	2,0557	5,1302	5,0373
303,3	2,1001	5,1345	5,0415
303,5	2,107	5,1381	5,0451
303,7	2,1167	5,141	5,048
303,9	2,1553	5,1455	5,0526
304,1	2,1742	5,1498	5,0569
304,3	2,2542	5,1608	5,0679
304,5	2,2516	5,1627	5,0697
304,7	2,2273	5,1627	5,0698
305	2,203	5,1627	5,0698
305,2	2,1787	5,1627	5,0698
305,4	2,2056	5,1671	5,0742
305,6	2,2649	5,1737	5,0807
305,8	2,2663	5,1762	5,0833
306	2,2677	5,1797	5,0868
306,2	2,2567	5,1847	5,0918
306,4	2,2454	5,1874	5,0945
306,7	2,2536	5,1907	5,0978
306,9	2,2301	5,1953	5,1024
307,1	2,2066	5,2015	5,1085
307,3	0,13686	5,2057	5,1128
307,5	0,13638	5,2059	5,113
307,7	0,13589	5,2062	5,1132
307,9	0,13541	5,214	5,1211
308,1	0,13492	5,2172	5,1243
308,3	0,13444	5,2195	5,1266
308,6	0,13396	5,2213	5,1284
308,8	0,13347	5,2259	5,1329
309	0,13299	5,2299	5,137
309,2	0,13251	5,2334	5,1404
309,4	0,13202	5,236	5,1431
309,6	0,11695	5,2404	5,1475
309,8	0,1176	5,2448	5,1519
310	0,11826	5,2543	5,1614
310,3	0,11891	5,2545	5,1616
310,5	0,11957	5,2546	5,1617
310,7	0,12022	5,2556	5,1627
310,9	0,12088	5,2644	5,1715
311,1	0,12153	5,2665	5,1736
311,3	0,12185	5,2677	5,1748
311,5	0,12185	5,2714	5,1785
311,7	0,12185	5,2746	5,1817
311,9	0,12185	5,2799	5,187
312,2	0,12185	5,2824	5,1895
312,4	0,12185	5,287	5,1941
312,6	0,12224	5,291	5,1981
312,8	0,12264	5,295	5,2021
313	0,12304	5,3062	5,2133
313,2	0,122	5,3062	5,2133
313,4	0,12847	5,3062	5,2133
313,6	0,12594	5,3062	5,2133
313,9	0,12341	5,3063	5,2133
314,1	0,12912	5,3158	5,2229
314,3	0,13638	5,3173	5,2243
314,5	0,13601	5,3209	5,228
314,7	0,13564	5,3253	5,2323
314,9	0,13528	5,3285	5,2356
315,1	0,13491	5,332	5,2391
315,3	0,13454	5,3365	5,2436
315,4		5,3375	5,2446