File: Tests de traction/Fichiers source/04_07_2016/Sample_3_250N.txt
Time (s)	Load (N)	Machine Extension (mm)	Extension from Preload (mm)
0		0	-0,058749
0,2321	0,075043	0,00010396	-0,058645
0,4643	0,14832	0,028043	-0,030705
0,6964	0,22159	0,058689	-0,000059191
0,9285	0,29487	0,058902	0,00015358
1,161	0,36815	0,068243	0,0094944
1,393	0,44142	0,077489	0,01874
1,625	0,5147	0,082686	0,023937
1,857	0,58797	0,082703	0,023954
2,089	0,66125	0,08272	0,023971
2,321	0,73452	0,087172	0,028423
2,553	0,8078	0,0937	0,034951
2,786	0,88107	0,095619	0,03687
3,018	0,95435	0,098689	0,03994
3,25	1,0276	0,10251	0,043758
3,482	1,1009	0,1078	0,04905
3,714	1,1742	0,11138	0,052634
3,946	1,2475	0,11544	0,056691
4,178	1,3207	0,12036	0,061616
4,411	1,394	0,13319	0,074437
4,643	1,4673	0,13517	0,07642
4,875	1,5406	0,13499	0,076242
5,107	1,6138	0,13481	0,076064
5,339	1,6871	0,13464	0,075887
5,571	1,7604	0,13573	0,076985
5,803	1,8337	0,1459	0,087149
6,035	1,9069	0,14904	0,090296
6,268	1,9802	0,1541	0,095348
6,5	2,0535	0,1591	0,10035
6,732	2,1268	0,16285	0,1041
6,964	2,2	0,16663	0,10788
7,196	2,2733	0,17047	0,11172
7,428	2,3466	0,17971	0,12096
7,66	2,4199	0,18044	0,12169
7,893	2,4931	0,18046	0,12171
8,125	2,5664	0,18144	0,12269
8,357	2,6397	0,19166	0,13291
8,589	2,713	0,19215	0,1334
8,821	2,7862	0,19558	0,13683
9,053	2,8595	0,1994	0,14065
9,285	2,9328	0,20443	0,14568
9,517	3,0061	0,20825	0,1495
9,75	3,0793	0,21198	0,15323
9,982	3,1526	0,22148	0,16274
10,21	3,2259	0,22791	0,16916
10,45	3,2992	0,22728	0,16853
10,68	3,3724	0,22711	0,16836
10,91	3,4457	0,22723	0,16848
11,14	3,519	0,23103	0,17228
11,37	3,5923	0,23988	0,18113
11,61	3,6655	0,24245	0,1837
11,84	3,7388	0,24607	0,18732
12,07	3,8121	0,25014	0,19139
12,3	3,8854	0,25509	0,19635
12,54	3,9586	0,25871	0,19996
12,77	4,0319	0,26212	0,20338
13	4,1052	0,27773	0,21898
13,23	4,1785	0,27814	0,21939
13,46	4,2518	0,27755	0,2188
13,7	4,325	0,27739	0,21865
13,93	4,3983	0,27745	0,21871
14,16	4,4716	0,2792	0,22045
14,39	4,5449	0,28939	0,23064
14,62	4,6181	0,29187	0,23312
14,86	4,6914	0,29628	0,23753
15,09	4,7647	0,30147	0,24272
15,32	4,838	0,30518	0,24643
15,55	4,9112	0,30903	0,25028
15,79	4,9845	0,31791	0,25916
16,02	5,0578	0,32199	0,26324
16,25	5,1311	0,32208	0,26333
16,48	5,2043	0,32216	0,26341
16,71	5,2776	0,32744	0,26869
16,95	5,3509	0,33408	0,27533
17,18	5,4242	0,33479	0,27604
17,41	5,4974	0,33869	0,27994
17,64	5,5707	0,342	0,28325
17,87	5,644	0,34819	0,28944
18,11	5,7173	0,35105	0,2923
18,34	5,7905	0,35577	0,29702
18,57	5,8638	0,3602	0,30145
18,8	5,9371	0,37122	0,31247
19,03	6,0104	0,37147	0,31272
19,27	6,0836	0,37157	0,31282
19,5	6,1569	0,37167	0,31292
19,73	6,2302	0,37687	0,31813
19,96	6,3035	0,38312	0,32438
20,2	6,3767	0,38639	0,32764
20,43	6,45	0,38915	0,3304
20,66	6,5233	0,39415	0,3354
20,89	6,5966	0,39755	0,33881
21,12	6,6698	0,40222	0,34347
21,36	6,7431	0,40668	0,34793
21,59	6,8164	0,41286	0,35411
21,82	6,8897	0,42002	0,36127
22,05	6,9629	0,42007	0,36132
22,28	7,0362	0,42013	0,36138
22,52	7,1095	0,42081	0,36207
22,75	7,1828	0,43072	0,37197
22,98	7,256	0,4314	0,37265
23,21	7,3293	0,43485	0,3761
23,45	7,4026	0,44079	0,38204
23,68	7,4759	0,44464	0,38589
23,91	7,5492	0,44832	0,38957
24,14	7,6224	0,4522	0,39345
24,37	7,6957	0,45865	0,39991
24,61	7,769	0,46496	0,40621
24,84	7,8423	0,46715	0,40841
25,07	7,9155	0,46724	0,40849
25,3	7,9434	0,47061	0,41186
25,53	7,9511	0,47701	0,41827
25,77	7,9589	0,47761	0,41886
26	7,9667	0,48114	0,42239
26,23	7,9744	0,48621	0,42746
26,46	7,9822	0,49108	0,43234
26,7	7,99	0,4939	0,43516
26,93	7,9977	0,49878	0,44003
27,16	8,0055	0,50365	0,4449
27,39	8,0133	0,5179	0,45915
27,62	8,0211	0,51756	0,45881
27,86	8,0288	0,51586	0,45711
28,09	8,0366	0,51545	0,4567
28,32	8,0444	0,51539	0,45664
28,55	8,0521	0,52354	0,4648
28,78	8,0599	0,52854	0,46979
29,02	8,0677	0,53141	0,47266
29,25	8,0754	0,53786	0,47911
29,48	8,0832	0,54037	0,48162
29,71	8,091	0,54517	0,48642
29,95	8,0987	0,55019	0,49144
30,18	8,1065	0,55618	0,49743
30,41	8,1143	0,55761	0,49886
30,64	8,122	0,56322	0,50447
30,87	8,1298	0,56534	0,50659
31,11	8,1376	0,56953	0,51079
31,34	8,1453	0,5706	0,51186
31,57	8,1531	0,57463	0,51588
31,8	8,1609	0,57841	0,51966
32,03	8,1686	0,58371	0,52497
32,27	8,1764	0,58713	0,52838
32,5	8,1842	0,59104	0,53229
32,73	8,192	0,59592	0,53717
32,96	8,1997	0,60065	0,5419
33,2	8,2075	0,60993	0,55118
33,43	8,2153	0,60997	0,55122
33,66	8,223	0,61002	0,55127
33,89	8,2308	0,61006	0,55132
34,12	8,2386	0,61864	0,5599
34,36	8,2463	0,6215	0,56276
34,59	8,2541	0,62436	0,56561
34,82	8,2619	0,63059	0,57184
35,05	8,2696	0,63392	0,57517
35,28	8,2774	0,63853	0,57978
35,52	8,2852	0,64249	0,58374
35,75	8,2929	0,64859	0,58984
35,98	8,3007	0,65664	0,59789
36,21	8,3085	0,65666	0,59792
36,45	8,3162	0,65669	0,59794
36,68	8,324	0,65672	0,59797
36,91	8,3318	0,66038	0,60163
37,14	8,3396	0,66904	0,61029
37,37	8,3473	0,67085	0,6121
37,61	8,3551	0,6768	0,61805
37,84	8,3629	0,6804	0,62165
38,07	8,3706	0,68432	0,62557
38,3	8,3784	0,68866	0,62991
38,53	8,3862	0,69287	0,63412
38,77	8,3939	0,70315	0,6444
39	8,4017	0,70617	0,64742
39,23	8,4095	0,70622	0,64747
39,46	8,4172	0,70627	0,64752
39,69	8,425	0,70632	0,64757
39,93	8,4328	0,71627	0,65752
40,16	8,4405	0,71788	0,65914
40,39	8,4483	0,7208	0,66205
40,62	8,4561	0,72726	0,66851
40,86	8,4638	0,73035	0,6716
41,09	8,4716	0,73514	0,67639
41,32	8,4794	0,73961	0,68086
41,55	8,4872	0,7504	0,69165
41,78	8,4949	0,75043	0,69168
42,02	8,5027	0,75046	0,69171
42,25	8,5105	0,75049	0,69174
42,48	8,5182	0,758	0,69925
42,71	8,526	0,76203	0,70328
42,94	8,5338	0,76556	0,70681
43,18	8,5415	0,7672	0,70845
43,41	8,5493	0,77333	0,71459
43,64	8,5571	0,77741	0,71866
43,87	8,5648	0,78029	0,72155
44,11	8,5726	0,78527	0,72653
44,34	8,5804	0,79552	0,73677
44,57	8,5881	0,79619	0,73744
44,8	8,5959	0,79634	0,73759
45,03	8,6037	0,7965	0,73775
45,27	8,6114	0,80459	0,74584
45,5	8,6192	0,8099	0,75115
45,73	8,627	0,81096	0,75222
45,96	8,6348	0,8147	0,75595
46,19	8,6425	0,81802	0,75927
46,43	8,6503	0,82345	0,7647
46,66	8,6581	0,82719	0,76844
46,89	8,6658	0,83081	0,77206
47,12	8,6736	0,83556	0,77682
47,36	8,6814	0,84543	0,78668
47,59	8,6891	0,84577	0,78702
47,82	8,6969	0,84628	0,78753
48,05	8,7047	0,84639	0,78765
48,28	8,7124	0,85766	0,79891
48,52	8,7202	0,85822	0,79947
48,75	8,728	0,86167	0,80292
48,98	8,7357	0,86498	0,80623
49,21	8,7435	0,87013	0,81138
49,44	8,7513	0,87424	0,81549
49,68	8,759	0,87704	0,81829
49,91	8,7668	0,88209	0,82334
50,14	8,7746	0,89239	0,83364
50,37	8,7824	0,89253	0,83378
50,61	8,7901	0,89266	0,83391
50,84	8,7979	0,89422	0,83547
51,07	8,8057	0,90319	0,84444
51,3	8,8134	0,90527	0,84652
51,53	8,8212	0,90804	0,84929
51,77	8,829	0,91146	0,85271
52	8,8367	0,9162	0,85745
52,23	8,8445	0,92005	0,8613
52,46	8,8523	0,92355	0,8648
52,69	8,86	0,92864	0,8699
52,93	8,8678	0,93427	0,87553
53,16	8,8756	0,94156	0,88281
53,39	8,8833	0,94161	0,88286
53,62	8,8911	0,94166	0,88291
53,86	8,8989	0,94693	0,88818
54,09	8,9066	0,95246	0,89371
54,32	8,9144	0,95514	0,89639
54,55	8,9222	0,95747	0,89872
54,78	8,9299	0,96132	0,90257
55,02	8,9377	0,9671	0,90836
55,25	8,9455	0,96972	0,91097
55,48	8,9533	0,97489	0,91614
55,71	8,961	0,97946	0,92071
55,94	8,9688	0,9907	0,93195
56,18	8,9766	0,99163	0,93288
56,41	8,9843	0,99172	0,93297
56,64	8,9921	0,99182	0,93307
56,87	8,9999	0,99191	0,93316
57,1	9,0076	1,002	0,94321
57,34	9,0154	1,005	0,94621
57,57	9,0232	1,0077	0,94894
57,8	9,0309	1,0132	0,95441
58,03	9,0387	1,0173	0,95859
58,27	9,0465	1,0208	0,96209
58,5	9,0542	1,0249	0,96611
58,73	9,062	1,0351	0,97633
58,96	9,0698	1,0351	0,97638
59,19	9,0775	1,0352	0,97643
59,43	9,0853	1,0406	0,98183
59,66	9,0931	1,0471	0,98837
59,89	9,1009	1,0482	0,98948
60,12	9,1086	1,0514	0,99264
60,35	9,1164	1,0535	0,99476
60,59	9,1242	1,0594	1,0006
60,82	9,1319	1,0632	1,0045
61,05	9,1397	1,0666	1,0078
61,28	9,1475	1,0716	1,0128
61,52	9,1552	1,0758	1,0171
61,75	9,163	1,0896	1,0308
61,98	9,1708	1,0894	1,0306
62,21	9,1785	1,0892	1,0304
62,44	9,1863	1,089	1,0302
62,68	9,1941	1,0884	1,0297
62,91	9,2018	1,0983	1,0396
63,14	9,2096	1,1001	1,0413
63,37	9,2174	1,1061	1,0473
63,6	9,2251	1,11	1,0512
63,84	9,2329	1,1129	1,0541
64,07	9,2407	1,1184	1,0597
64,3	9,2485	1,1223	1,0635
64,53	9,2562	1,1333	1,0745
64,77	9,264	1,1333	1,0746
65	9,2718	1,1334	1,0747
65,23	9,2795	1,1335	1,0747
65,46	9,2873	1,143	1,0843
65,69	9,2951	1,144	1,0853
65,93	9,3028	1,1467	1,088
66,16	9,3106	1,1523	1,0935
66,39	9,3184	1,1567	1,098
66,62	9,3261	1,159	1,1003
66,85	9,3339	1,1646	1,1059
67,09	9,3417	1,1686	1,1099
67,32	9,3494	1,1795	1,1208
67,55	9,3572	1,1796	1,1209
67,78	9,365	1,1797	1,121
68,02	9,3727	1,1798	1,1211
68,25	9,3805	1,1896	1,1309
68,48	9,3883	1,1901	1,1314
68,71	9,3961	1,1932	1,1345
68,94	9,4038	1,1977	1,1389
69,18	9,4116	1,2026	1,1438
69,41	9,4194	1,2061	1,1473
69,64	9,4271	1,2103	1,1516
69,87	9,4349	1,215	1,1563
70,1	9,4427	1,2285	1,1697
70,34	9,4504	1,2285	1,1698
70,57	9,4582	1,2286	1,1698
70,8	9,466	1,2286	1,1698
71,03	9,4737	1,2286	1,1699
71,27	9,4815	1,2388	1,1801
71,5	9,4893	1,2408	1,182
71,73	9,497	1,2433	1,1845
71,96	9,5048	1,2495	1,1908
72,19	9,5126	1,2525	1,1938
72,43	9,5203	1,2567	1,198
72,66	9,5281	1,2613	1,2026
72,89	9,5359	1,2662	1,2074
73,12	9,5437	1,2771	1,2183
73,35	9,5514	1,2771	1,2183
73,59	9,5592	1,2771	1,2184
73,82	9,567	1,2771	1,2184
74,05	9,5747	1,2783	1,2195
74,28	9,5825	1,2873	1,2285
74,52	9,5903	1,2903	1,2315
74,75	9,598	1,2951	1,2364
74,98	9,6058	1,3	1,2413
75,21	9,6136	1,3039	1,2451
75,44	9,6213	1,3073	1,2485
75,68	9,6291	1,3128	1,254
75,91	9,6369	1,3197	1,2609
76,14	9,6446	1,3221	1,2633
76,37	9,6524	1,3222	1,2634
76,6	9,6602	1,3253	1,2666
76,84	9,6679	1,3324	1,2737
77,07	9,6757	1,3343	1,2755
77,3	9,6835	1,3373	1,2785
77,53	9,6912	1,3406	1,2818
77,76	9,699	1,346	1,2872
78	9,7068	1,3497	1,291
78,23	9,7146	1,3528	1,2941
78,46	9,7223	1,3579	1,2992
78,69	9,7301	1,3722	1,3134
78,93	9,7379	1,3723	1,3136
79,16	9,7456	1,3716	1,3128
79,39	9,7534	1,3706	1,3118
79,62	9,7612	1,3709	1,3122
79,85	9,7689	1,38	1,3212
80,09	9,7767	1,3839	1,3251
80,32	9,7845	1,3873	1,3286
80,55	9,7922	1,3913	1,3325
80,78	9,8	1,3962	1,3375
81,01	9,8078	1,4007	1,3419
81,25	9,8155	1,4046	1,3458
81,48	9,8233	1,4092	1,3504
81,71	9,8311	1,4168	1,358
81,94	9,8388	1,4179	1,3591
82,18	9,8466	1,4179	1,3591
82,41	9,8544	1,4239	1,3652
82,64	9,8622	1,4294	1,3706
82,87	9,8699	1,4301	1,3714
83,1	9,8777	1,4342	1,3754
83,34	9,8855	1,438	1,3793
83,57	9,8932	1,4437	1,3849
83,8	9,901	1,4471	1,3883
84,03	9,9088	1,4505	1,3918
84,26	9,9165	1,4555	1,3968
84,5	9,9243	1,462	1,4032
84,73	9,9321	1,4626	1,4039
84,96	9,9398	1,4698	1,411
85,19	9,9476	1,471	1,4122
85,43	9,9554	1,4736	1,4149
85,66	9,9631	1,4778	1,419
85,89	9,9709	1,4804	1,4217
86,12	9,9787	1,4841	1,4254
86,35	9,9864	1,4885	1,4297
86,59	9,9942	1,4931	1,4344
86,82	10,002	1,496	1,4373
87,05	10,01	1,5012	1,4425
87,28	10,018	1,51	1,4512
87,51	10,025	1,5164	1,4577
87,75	10,033	1,5165	1,4577
87,98	10,041	1,5165	1,4578
88,21	10,049	1,5166	1,4578
88,44	10,056	1,5201	1,4614
88,68	10,064	1,5281	1,4693
88,91	10,072	1,5299	1,4712
89,14	10,08	1,5343	1,4756
89,37	10,087	1,5392	1,4805
89,6	10,095	1,5419	1,4831
89,84	10,103	1,5482	1,4894
90,07	10,111	1,5539	1,4951
90,3	10,119	1,5599	1,5011
90,53	10,126	1,5599	1,5012
90,76	10,134	1,56	1,5012
91	10,142	1,5665	1,5077
91,23	10,15	1,5715	1,5128
91,46	10,157	1,573	1,5142
91,69	10,165	1,5772	1,5184
91,93	10,173	1,5812	1,5224
92,16	10,181	1,5859	1,5272
92,39	10,188	1,5899	1,5312
92,62	10,196	1,5939	1,5352
92,85	10,204	1,5979	1,5392
93,09	10,212	1,6051	1,5464
93,32	10,219	1,6098	1,5511
93,55	10,227	1,6099	1,5512
93,78	10,235	1,61	1,5513
94,01	10,243	1,6189	1,5602
94,25	10,251	1,6206	1,5619
94,48	10,258	1,623	1,5642
94,71	10,266	1,6262	1,5675
94,94	10,274	1,6328	1,5741
95,17	10,282	1,6363	1,5775
95,41	10,289	1,6386	1,5798
95,64	10,297	1,6444	1,5856
95,87	10,305	1,6532	1,5945
96,1	10,313	1,6569	1,5982
96,34	10,32	1,657	1,5982
96,57	10,328	1,657	1,5983
96,8	10,336	1,6611	1,6024
97,03	10,344	1,6673	1,6085
97,26	10,352	1,6703	1,6116
97,5	10,359	1,6729	1,6141
97,73	10,367	1,679	1,6203
97,96	10,375	1,683	1,6243
98,19	10,383	1,686	1,6273
98,42	10,39	1,6908	1,6321
98,66	10,398	1,6971	1,6383
98,89	10,406	1,6996	1,6409
99,12	10,414	1,7049	1,6461
99,35	10,421	1,7062	1,6475
99,59	10,429	1,7129	1,6542
99,82	10,437	1,7134	1,6546
100	10,445	1,7167	1,6579
100,3	10,453	1,7194	1,6607
100,5	10,46	1,7258	1,6671
100,7	10,468	1,7291	1,6703
101	10,476	1,7322	1,6734
101,2	10,484	1,7367	1,678
101,4	10,491	1,7432	1,6845
101,7	10,499	1,749	1,6902
101,9	10,507	1,7492	1,6904
102,1	10,515	1,7493	1,6906
102,4	10,522	1,7585	1,6997
102,6	10,53	1,76	1,7013
102,8	10,538	1,763	1,7042
103,1	10,546	1,7659	1,7072
103,3	10,554	1,7706	1,7118
103,5	10,561	1,7757	1,7169
103,8	10,569	1,7787	1,72
104	10,577	1,7832	1,7245
104,2	10,585	1,7882	1,7294
104,5	10,592	1,7988	1,74
104,7	10,6	1,7988	1,74
104,9	10,608	1,7988	1,7401
105,2	10,616	1,7988	1,7401
105,4	10,623	1,8056	1,7469
105,6	10,631	1,8097	1,751
105,9	10,639	1,8126	1,7539
106,1	10,647	1,8166	1,7578
106,3	10,655	1,8222	1,7634
106,5	10,662	1,8251	1,7663
106,8	10,67	1,8298	1,771
107	10,678	1,8342	1,7754
107,2	10,686	1,8422	1,7834
107,5	10,693	1,8487	1,79
107,7	10,701	1,8487	1,79
107,9	10,709	1,8488	1,79
108,2	10,717	1,8488	1,79
108,4	10,724	1,8551	1,7963
108,6	10,732	1,86	1,8013
108,9	10,74	1,8631	1,8044
109,1	10,748	1,8681	1,8094
109,3	10,756	1,8724	1,8137
109,6	10,763	1,8763	1,8175
109,8	10,771	1,8802	1,8215
110	10,779	1,8844	1,8256
110,3	10,787	1,8932	1,8344
110,5	10,794	1,8933	1,8346
110,7	10,802	1,8935	1,8348
111	10,81	1,8992	1,8405
111,2	10,818	1,9052	1,8465
111,4	10,825	1,9066	1,8479
111,7	10,833	1,9101	1,8513
111,9	10,315	1,9137	1,8549
112,1	8,5597	1,918	1,8592
112,4	7,8488	1,9223	1,8635
112,6	7,7667	1,9263	1,8676
112,8	7,6846	1,9322	1,8734
113	7,6025	1,9392	1,8804
113,3	7,5203	1,9393	1,8805
113,5	7,4382	1,9394	1,8807
113,7	7,3561	1,9468	1,8881
114	7,274	1,9482	1,8895
114,2	7,1919	1,9541	1,8954
114,4	7,1098	1,9566	1,8979
114,7	7,0277	1,9595	1,9008
114,9	6,9456	1,9643	1,9055
115,1	6,8635	1,9694	1,9106
115,4	6,7814	1,9736	1,9148
115,6	6,6992	1,9777	1,919
115,8	6,6171	1,9819	1,9231
116,1	6,535	1,9905	1,9318
116,3	6,4529	1,9905	1,9318
116,5	6,3708	1,9905	1,9318
116,8	6,2887	1,9953	1,9366
117	1,0507	2,0007	1,9419
117,2	1,0553	2,0024	1,9437
117,5	1,0599	2,0062	1,9475
117,7	1,0645	2,0113	1,9526
117,9	1,0691	2,0143	1,9555
118,2	1,0737	2,0193	1,9606
118,4	1,0784	2,0234	1,9647
118,6	1,083	2,0275	1,9688
118,9	1,0876	2,0387	1,98
119,1	1,0922	2,0388	1,98
119,3	1,0968	2,0388	1,9801
119,5	1,1014	2,0389	1,9802
119,8	1,106	2,0485	1,9898
120	1,1106	2,0493	1,9906
120,2	1,1152	2,053	1,9942
120,5	1,1199	2,0562	1,9975
120,7	1,1245	2,0619	2,0031
120,9	1,1291	2,0661	2,0073
121,2	1,1337	2,0696	2,0109
121,4	1,1383	2,0731	2,0144
121,6	1,1429	2,0868	2,0281
121,9	1,1475	2,0866	2,0278
122,1	1,1521	2,0863	2,0276
122,3	1,1568	2,0862	2,0274
122,6	1,1614	2,0866	2,0279
122,8	1,166	2,0976	2,0388
123	1,1706	2,1001	2,0414
123,3	1,1752	2,1025	2,0438
123,5	1,1798	2,1082	2,0494
123,7	1,1844	2,1117	2,0529
124	1,189	2,1146	2,0558
124,2	1,1936	2,1206	2,0619
124,4	1,1983	2,1282	2,0694
124,7	1,2029	2,1308	2,0721
124,9	1,2075	2,131	2,0723
125,1	1,2121	2,1342	2,0755
125,4	1,2167	2,1434	2,0846
125,6	1,2213	2,1435	2,0847
125,8	1,2259	2,1452	2,0865
126	1,2305	2,1491	2,0903
126,3	1,2352	2,1547	2,096
126,5	1,2398	2,1577	2,0989
126,7	1,2444	2,1631	2,1044
127	1,249	2,1667	2,1079
127,2	1,2536	2,1704	2,1117
127,4	1,2582	2,1817	2,1229
127,7	1,2628	2,1817	2,123
127,9	1,2674	2,1818	2,1231
128,1	1,272	2,1819	2,1231
128,4	1,2767	2,1911	2,1324
128,6	1,2813	2,1927	2,1339
128,8	1,2859	2,1952	2,1364
129,1	1,2905	2,1997	2,141
129,3	1,2951	2,2049	2,1461
129,5	1,2997	2,2088	2,15
129,8	1,3043	2,2119	2,1532
130	1,3089	2,2201	2,1614
130,2	1,3136	2,2263	2,1676
130,5	1,3182	2,2266	2,1679
130,7	1,3228	2,2272	2,1685
130,9	1,3274	2,2273	2,1685
131,2	1,332	2,2346	2,1758
131,4	1,3366	2,24	2,1812
131,6	1,3412	2,2426	2,1838
131,9	1,3458	2,246	2,1873
132,1	1,3504	2,2521	2,1933
132,3	1,3551	2,2553	2,1966
132,5	1,3597	2,2592	2,2005
132,8	1,3643	2,2632	2,2045
133	1,3689	2,2679	2,2092
133,2	1,3735	2,2749	2,2162
133,5	1,3781	2,2751	2,2163
133,7	1,3827	2,2753	2,2165
133,9	1,3873	2,2843	2,2256
134,2	1,392	2,2861	2,2273
134,4	1,3966	2,2894	2,2306
134,6	1,4012	2,2921	2,2334
134,9	1,4058	2,2976	2,2389
135,1	1,4104	2,3018	2,243
135,3	1,415	2,3047	2,2459
135,6	1,4196	2,3095	2,2507
135,8	1,4242	2,3202	2,2615
136	1,4288	2,3211	2,2623
136,3	1,4335	2,3211	2,2623
136,5	1,4381	2,3235	2,2648
136,7	1,4427	2,3298	2,2711
137	1,4473	2,3327	2,274
137,2	1,4519	2,3357	2,2769
137,4	1,4565	2,3384	2,2797
137,7	1,4611	2,3435	2,2848
137,9	1,4657	2,3483	2,2896
138,1	1,4704	2,3519	2,2931
138,4	1,475	2,3553	2,2965
138,6	1,4796	2,3627	2,3039
138,8	1,4842	2,3668	2,308
139	1,4888	2,3692	2,3105
139,3	1,4934	2,3714	2,3126
139,5	1,498	2,3759	2,3172
139,7	1,5026	2,3809	2,3221
140	1,5072	2,3816	2,3228
140,2	1,5119	2,385	2,3263
140,4	1,5165	2,3897	2,3309
140,7	1,5211	2,3942	2,3355
140,9	1,5257	2,3975	2,3388
141,1	1,5303	2,4025	2,3437
141,4	1,5349	2,4077	2,349
141,6	1,5395	2,4163	2,3575
141,8	1,5441	2,4164	2,3576
142,1	1,5488	2,4165	2,3577
142,3	1,5534	2,419	2,3603
142,5	1,558	2,4285	2,3698
142,8	1,5626	2,4289	2,3702
143	1,5672	2,4322	2,3734
143,2	1,5718	2,4355	2,3767
143,5	1,5764	2,4405	2,3818
143,7	1,581	2,4449	2,3862
143,9	1,5856	2,449	2,3902
144,2	1,5903	2,453	2,3943
144,4	1,5949	2,4603	2,4016
144,6	1,5995	2,4656	2,4068
144,9	1,6041	2,4656	2,4069
145,1	1,6087	2,4657	2,4069
145,3	1,6133	2,4699	2,4111
145,5	1,6179	2,4764	2,4177
145,8	1,6225	2,478	2,4192
146	1,6272	2,4813	2,4226
146,2	1,6318	2,4875	2,4288
146,5	1,6364	2,491	2,4322
146,7	1,641	2,495	2,4362
146,9	1,6456	2,4995	2,4407
147,2	1,6502	2,504	2,4452
147,4	1,6548	2,5143	2,4556
147,6	1,6594	2,5142	2,4555
147,9	1,664	2,5141	2,4554
148,1	1,6687	2,514	2,4553
148,3	1,6733	2,5193	2,4606
148,6	1,6779	2,5259	2,4672
148,8	1,6825	2,5293	2,4706
149	1,6871	2,5328	2,4741
149,3	1,6917	2,5372	2,4784
149,5	1,6963	2,5409	2,4822
149,7	1,7009	2,5457	2,487
150	1,7056	2,5499	2,4911
150,2	1,7102	2,5591	2,5004
150,4	1,7148	2,5602	2,5014
150,7	1,7194	2,5604	2,5017
150,9	1,724	2,5613	2,5025
151,1	1,7286	2,5705	2,5118
151,4	1,7332	2,5725	2,5138
151,6	1,7378	2,5757	2,5169
151,8	1,7425	2,5788	2,5201
152	1,7471	2,5842	2,5254
152,3	1,7517	2,5866	2,5279
152,5	1,7563	2,5918	2,533
152,7	1,7609	2,5961	2,5373
153	1,7655	2,6015	2,5428
153,2	1,7701	2,6072	2,5485
153,4	1,7747	2,6074	2,5487
153,7	1,7793	2,6121	2,5534
153,9	1,784	2,6163	2,5576
154,1	1,7886	2,6201	2,5613
154,4	1,7932	2,6209	2,5621
154,6	1,7978	2,6252	2,5664
154,8	1,8024	2,6296	2,5709
155,1	1,807	2,6352	2,5765
155,3	1,8116	2,6389	2,5802
155,5	1,8162	2,6426	2,5838
155,8	1,8209	2,6476	2,5888
156	1,8255	2,6543	2,5955
156,2	1,8301	2,6595	2,6008
156,5	1,8347	2,6596	2,6008
156,7	1,8393	2,6596	2,6009
156,9	1,8439	2,6637	2,6049
157,2	1,8485	2,6693	2,6106
157,4	1,8531	2,6727	2,614
157,6	1,8577	2,6759	2,6172
157,9	1,8624	2,68	2,6212
158,1	1,867	2,6844	2,6257
158,3	1,8716	2,6878	2,6291
158,5	1,8762	2,693	2,6343
158,8	1,8808	2,7006	2,6418
159	1,8854	2,7013	2,6426
159,2	1,89	2,7029	2,6441
159,5	1,8946	2,7077	2,6489
159,7	1,8993	2,7144	2,6557
159,9	1,9039	2,7147	2,656
160,2	1,9085	2,7181	2,6593
160,4	1,9131	2,7224	2,6636
160,6	1,9177	2,7284	2,6696
160,9	1,9223	2,7306	2,6718
161,1	1,9269	2,7351	2,6764
161,3	1,9315	2,7394	2,6807
161,6	1,9361	2,7429	2,6841
161,8	1,9408	2,7525	2,6937
162	1,9454	2,7526	2,6938
162,3	1,95	2,7527	2,6939
162,5	1,9546	2,7537	2,6949
162,7	1,9592	2,7632	2,7044
163	1,9638	2,7646	2,7058
163,2	1,9684	2,7675	2,7088
163,4	1,973	2,773	2,7143
163,7	1,9777	2,7775	2,7188
163,9	1,9799	2,7812	2,7225
164,1	1,9782	2,7842	2,7254
164,4	1,9764	2,7938	2,7351
164,6	1,9747	2,7942	2,7355
164,8	1,973	2,795	2,7363
165	1,9712	2,8038	2,7451
165,3	1,9695	2,8038	2,7451
165,5	1,9677	2,8102	2,7515
165,7	1,966	2,8115	2,7528
166	1,9642	2,8148	2,756
166,2	1,9625	2,8186	2,7598
166,4	1,9607	2,8243	2,7656
166,7	1,959	2,8283	2,7696
166,9	1,9572	2,8323	2,7736
167,1	1,9555	2,8364	2,7777
167,4	1,9538	2,845	2,7863
167,6	1,952	2,8455	2,7868
167,8	1,9503	2,8456	2,7868
168,1	1,9485	2,8523	2,7935
168,3	1,9468	2,8552	2,7965
168,5	1,945	2,8577	2,7989
168,8	1,9433	2,8609	2,8022
169	1,9415	2,8655	2,8068
169,2	1,9398	2,8708	2,812
169,5	1,938	2,8738	2,815
169,7	1,9363	2,8773	2,8186
169,9	1,9346	2,8826	2,8238
170,2	1,9328	2,8932	2,8344
170,4	1,9311	2,8933	2,8345
170,6	1,9293	2,8934	2,8347
170,9	1,9276	2,8935	2,8348
171,1	1,9258	2,903	2,8443
171,3	1,9241	2,9051	2,8463
171,5	1,9223	2,9081	2,8493
171,8	1,9206	2,911	2,8522
172	1,9188	2,9167	2,858
172,2	1,9171	2,9207	2,862
172,5	1,9154	2,9247	2,866
172,7	1,9136	2,9276	2,8688
172,9	1,9119	2,9392	2,8804
173,2	1,9101	2,9394	2,8807
173,4	1,9084	2,9397	2,8809
173,6	1,9066	2,9414	2,8826
173,9	1,9049	2,9471	2,8884
174,1	1,9031	2,9522	2,8935
174,3	1,9014	2,9545	2,8958
174,6	1,8996	2,9576	2,8989
174,8	1,8979	2,9638	2,9051
175	1,8962	2,9674	2,9086
175,3	1,8944	2,9709	2,9122
175,5	1,8927	2,9752	2,9165
175,7	1,8909	2,9824	2,9237
176	1,8892	2,9881	2,9294
176,2	1,8874	2,9882	2,9294
176,4	1,8857	2,9882	2,9295
176,7	1,8839	2,9938	2,9351
176,9	1,8822	3	2,9412
177,1	1,8804	3,001	2,9422
177,4	1,8787	3,0043	2,9456
177,6	1,877	3,0095	2,9507
177,8	1,8752	3,0125	2,9537
178	1,8735	3,0178	2,959
178,3	1,8717	3,0219	2,9631
178,5	1,87	3,026	2,9673
178,7	1,8682	3,0344	2,9756
179	1,8665	3,0346	2,9758
179,2	1,8647	3,0348	2,976
179,4	1,863	3,0418	2,983
179,7	1,8612	3,046	2,9872
179,9	1,8595	3,0477	2,9889
180,1	1,8578	3,0511	2,9923
180,4	1,856	3,0548	2,996
180,6	1,8543	3,0595	3,0008
180,8	1,8525	3,0636	3,0049
181,1	1,8508	3,0677	3,009
181,3	1,849	3,0718	3,0131
181,5	1,8473	3,0784	3,0196
181,8	1,8455	3,0851	3,0264
182	1,8438	3,0852	3,0265
182,2	1,842	3,0853	3,0266
182,5	1,8403	3,0876	3,0288
182,7	1,8386	3,0951	3,0363
182,9	1,8368	3,0972	3,0385
183,2	1,8351	3,1011	3,0424
183,4	1,8333	3,1062	3,0474
183,6	1,8316	3,1095	3,0507
183,9	1,8298	3,114	3,0553
184,1	1,8281	3,1183	3,0596
184,3	1,8263	3,1226	3,0639
184,5	1,8246	3,1312	3,0725
184,8	1,8228	3,1315	3,0728
185	1,8211	3,1318	3,0731
185,2	1,8194	3,1403	3,0815
185,5	1,8176	3,141	3,0823
185,7	1,8159	3,1442	3,0855
185,9	1,8141	3,1482	3,0895
186,2	1,8124	3,1521	3,0933
186,4	1,8106	3,1566	3,0978
186,6	1,8089	3,1598	3,1011
186,9	1,8071	3,1646	3,1059
187,1	1,8054	3,1689	3,1101
187,3	1,8036	3,1754	3,1167
187,6	1,8019	3,1792	3,1204
187,8	1,8002	3,1794	3,1207
188	1,7984	3,1814	3,1227
188,3	1,7967	3,1906	3,1318
188,5	1,7949	3,1908	3,1321
188,7	1,7932	3,1939	3,1351
189	1,7914	3,1977	3,139
189,2	1,7897	3,2044	3,1457
189,4	1,7879	3,2068	3,1481
189,7	1,7862	3,211	3,1523
189,9	1,7844	3,2152	3,1564
190,1	1,7827	3,2194	3,1606
190,3	1,7809	3,2292	3,1705
190,6	1,7792	3,2294	3,1706
190,8	1,7775	3,2295	3,1708
191	1,7757	3,2297	3,171
191,3	1,774	3,2397	3,1809
191,5	1,7722	3,2407	3,1819
191,7	1,7705	3,2444	3,1856
192	1,7687	3,2481	3,1894
192,2	1,767	3,254	3,1952
192,4	1,7652	3,257	3,1983
192,7	1,7635	3,2609	3,2022
192,9	1,7617	3,267	3,2083
193,1	1,76	3,273	3,2142
193,4	1,7583	3,2775	3,2187
193,6	1,7565	3,2775	3,2187
193,8	1,7548	3,2775	3,2187
194,1	1,753	3,287	3,2283
194,3	1,7513	3,2875	3,2288
194,5	1,7495	3,2912	3,2324
194,8	1,7478	3,2953	3,2365
195	1,746	3,2995	3,2408
195,2	1,7443	3,3038	3,2451
195,5	1,7425	3,3085	3,2497
195,7	1,7408	3,3129	3,2542
195,9	1,7391	3,3198	3,2611
196,2	1,7373	3,3224	3,2637
196,4	1,7356	3,3229	3,2642
196,6	1,7338	3,3269	3,2681
196,8	1,7321	3,3323	3,2735
197,1	1,7303	3,3345	3,2757
197,3	1,7286	3,3369	3,2781
197,5	1,7268	3,3406	3,2818
197,8	1,7251	3,3461	3,2873
198	1,7233	3,3496	3,2909
198,2	1,7216	3,3531	3,2944
198,5	1,7199	3,3581	3,2994
198,7	1,7181	3,3671	3,3084
198,9	1,7164	3,3672	3,3085
199,2	1,7146	3,3673	3,3086
199,4	1,7129	3,3743	3,3155
199,6	1,7111	3,3761	3,3173
199,9	1,7094	3,3822	3,3235
200,1	1,7076	3,3836	3,3248
200,3	1,7059	3,3872	3,3285
200,6	1,7041	3,3919	3,3332
200,8	1,7024	3,3966	3,3378
201	1,7007	3,4006	3,3419
201,3	1,6989	3,4046	3,3459
201,5	1,6972	3,4087	3,3499
201,7	1,6954	3,4167	3,3579
202	1,6937	3,4169	3,3582
202,2	1,6919	3,4174	3,3587
202,4	1,6902	3,4259	3,3672
202,7	1,6884	3,4274	3,3687
202,9	1,6867	3,4308	3,3721
203,1	1,6849	3,4333	3,3745
203,3	1,6832	3,4394	3,3806
203,6	1,6815	3,4436	3,3849
203,8	1,6797	3,4468	3,3881
204	1,678	3,4508	3,392
204,3	1,6762	3,4574	3,3986
204,5	1,6745	3,4608	3,4021
204,7	1,6727	3,4613	3,4026
205	1,671	3,4692	3,4105
205,2	1,6692	3,4704	3,4117
205,4	1,6675	3,4741	3,4153
205,7	1,6657	3,4762	3,4174
205,9	1,664	3,48	3,4213
206,1	1,6623	3,4845	3,4257
206,4	1,6605	3,4897	3,431
206,6	1,6588	3,4933	3,4345
206,8	1,657	3,4965	3,4377
207,1	1,6553	3,5034	3,4446
207,3	1,6535	3,5067	3,4479
207,5	1,6518	3,5126	3,4539
207,8	1,65	3,515	3,4563
208	1,6483	3,5151	3,4563
208,2	1,6465	3,5221	3,4633
208,5	1,6448	3,5237	3,465
208,7	1,6431	3,5268	3,468
208,9	1,6413	3,5295	3,4707
209,2	1,6396	3,5359	3,4771
209,4	1,6378	3,5395	3,4807
209,6	1,6361	3,543	3,4843
209,8	1,6343	3,548	3,4893
210,1	1,6326	3,557	3,4982
210,3	1,6308	3,564	3,5053
210,5	1,6291	3,5638	3,5051
210,8	1,6273	3,5636	3,5048
211	1,6256	3,5634	3,5046
211,2	1,6239	3,5634	3,5047
211,5	1,6221	3,5735	3,5148
211,7	1,6204	3,5768	3,518
211,9	1,6186	3,5814	3,5226
212,2	1,6169	3,5865	3,5278
212,4	1,6151	3,5905	3,5318
212,6	1,6134	3,5944	3,5357
212,9	1,6116	3,5984	3,5396
213,1	1,6099	3,6086	3,5499
213,3	1,6081	3,6088	3,55
213,6	1,6064	3,6089	3,5502
213,8	1,6047	3,6093	3,5505
214	1,6029	3,6186	3,5599
214,3	1,6012	3,6206	3,5618
214,5	1,5994	3,6238	3,565
214,7	1,5977	3,627	3,5683
215	1,5959	3,6333	3,5746
215,2	1,5942	3,6369	3,5782
215,4	1,5924	3,6406	3,5818
215,7	1,5907	3,645	3,5863
215,9	1,5889	3,6568	3,598
216,1	1,5872	3,6568	3,5981
216,3	1,5855	3,6569	3,5981
216,6	1,5837	3,657	3,5982
216,8	1,582	3,6596	3,6008
217	1,5802	3,6689	3,6102
217,3	1,5785	3,6702	3,6114
217,5	1,5767	3,6735	3,6147
217,7	1,575	3,6796	3,6209
218	1,5732	3,6816	3,6229
218,2	1,5715	3,687	3,6282
218,4	1,5697	3,6912	3,6324
218,7	1,568	3,6953	3,6366
218,9	1,5662	3,705	3,6462
219,1	1,5645	3,7051	3,6464
219,4	1,5628	3,7052	3,6465
219,6	1,561	3,7054	3,6467
219,8	1,5593	3,7158	3,657
220,1	1,5575	3,7162	3,6575
220,3	1,5558	3,7203	3,6616
220,5	1,554	3,7253	3,6665
220,8	1,5523	3,7285	3,6697
221	1,5505	3,7328	3,674
221,2	1,5488	3,7371	3,6783
221,5	1,547	3,7414	3,6826
221,7	1,5453	3,7506	3,6918
221,9	1,5436	3,7506	3,6919
222,2	1,5418	3,7507	3,6919
222,4	1,5401	3,7563	3,6975
222,6	1,5383	3,7623	3,7035
222,8	1,5366	3,7628	3,7041
223,1	1,5348	3,7672	3,7085
223,3	1,5331	3,7703	3,7115
223,5	1,5313	3,7757	3,7169
223,8	1,5296	3,7793	3,7206
224	1,5278	3,7828	3,724
224,2	1,5261	3,7885	3,7298
224,5	1,5244	3,7927	3,7339
224,7	1,5226	3,8036	3,7448
224,9	1,5209	3,8037	3,7449
225,2	1,5191	3,8037	3,745
225,4	1,5174	3,8038	3,7451
225,6	1,5156	3,8119	3,7531
225,9	1,5139	3,814	3,7552
226,1	1,5121	3,8168	3,758
226,3	1,5104	3,8217	3,7629
226,6	1,5086	3,8257	3,767
226,8	1,5069	3,8285	3,7698
227	1,5052	3,8343	3,7755
227,3	1,5034	3,8409	3,7822
227,5	1,5017	3,8484	3,7897
227,7	1,4999	3,8485	3,7897
228	1,4982	3,8485	3,7898
228,2	1,4964	3,8485	3,7898
228,4	1,4947	3,8586	3,7999
228,7	1,4929	3,8599	3,8011
228,9	1,4912	3,8631	3,8044
229,1	1,4894	3,8675	3,8087
229,3	1,4877	3,8724	3,8136
229,6	1,486	3,8767	3,818
229,8	1,4842	3,8809	3,8222
230	1,4825	3,8851	3,8263
230,3	1,4807	3,8945	3,8357
230,5	1,479	3,8953	3,8366
230,7	1,4772	3,8953	3,8366
231	1,4755	3,8954	3,8366
231,2	1,4737	3,9063	3,8476
231,4	1,472	3,9066	3,8478
231,7	1,4702	3,9093	3,8505
231,9	1,4685	3,9138	3,8551
232,1	1,4668	3,9195	3,8607
232,4	1,465	3,9227	3,8639
232,6	1,4633	3,9257	3,8669
232,8	1,4615	3,9312	3,8724
233,1	1,4598	3,9438	3,8851
233,3	1,458	3,9439	3,8851
233,5	1,4563	3,9439	3,8852
233,8	1,4545	3,9439	3,8852
234	1,4528	3,944	3,8852
234,2	1,451	3,9542	3,8955
234,5	1,4493	3,9565	3,8977
234,7	1,4476	3,9595	3,9007
234,9	1,4458	3,9655	3,9068
235,2	1,4441	3,9694	3,9107
235,4	1,4423	3,9731	3,9143
235,6	1,4406	3,9778	3,919
235,8	1,4388	3,9848	3,9261
236,1	1,4371	3,9861	3,9274
236,3	1,4353	3,9917	3,9329
236,5	1,4336	3,9929	3,9342
236,8	1,4318	3,999	3,9402
237	1,4301	4,0001	3,9414
237,2	1,4284	4,0023	3,9435
237,5	1,4266	4,0056	3,9469
237,7	1,4249	4,0119	3,9532
237,9	1,4231	4,015	3,9563
238,2	1,4214	4,0184	3,9597
238,4	1,4196	4,024	3,9653
238,6	1,4179	4,0294	3,9706
238,9	1,4161	4,0373	3,9785
239,1	1,4144	4,0373	3,9786
239,3	1,4126	4,0373	3,9786
239,6	1,4109	4,0394	3,9807
239,8	1,4092	4,0473	3,9886
240	1,4074	4,0495	3,9908
240,3	1,4057	4,0523	3,9936
240,5	1,4039	4,0585	3,9997
240,7	1,4022	4,0619	4,0031
241	1,4004	4,0648	4,0061
241,2	1,3987	4,0694	4,0107
241,4	1,3969	4,0753	4,0166
241,7	1,3952	4,0849	4,0262
241,9	1,3934	4,085	4,0262
242,1	1,3917	4,085	4,0263
242,3	1,39	4,0851	4,0263
242,6	1,3882	4,0942	4,0355
242,8	1,3865	4,0968	4,0381
243	1,3847	4,0989	4,0401
243,3	1,383	4,1039	4,0451
243,5	1,3812	4,1083	4,0496
243,7	1,3795	4,1112	4,0524
244	1,3777	4,1163	4,0575
244,2	1,376	4,1206	4,0619
244,4	1,3742	4,1323	4,0735
244,7	1,3725	4,1337	4,0749
244,9	1,3708	4,1337	4,075
245,1	1,369	4,1338	4,075
245,4	1,3673	4,1338	4,075
245,6	1,3655	4,144	4,0852
245,8	1,3638	4,1465	4,0878
246,1	1,362	4,1493	4,0905
246,3	1,3603	4,155	4,0962
246,5	1,3585	4,1588	4,1
246,8	1,3568	4,1626	4,1038
247	1,355	4,167	4,1082
247,2	1,3533	4,1708	4,112
247,5	1,3515	4,1802	4,1215
247,7	1,3498	4,1809	4,1222
247,9	1,3481	4,1809	4,1222
248,2	1,3463	4,1817	4,1229
248,4	1,3446	4,1919	4,1331
248,6	1,3428	4,1923	4,1336
248,8	1,3411	4,1954	4,1367
249,1	1,3393	4,2005	4,1418
249,3	1,3376	4,2055	4,1468
249,5	1,3358	4,2092	4,1505
249,8	1,3341	4,2124	4,1536
250	1,3323	4,2205	4,1617
250,2	1,3306	4,224	4,1653
250,5	1,3289	4,2241	4,1654
250,7	1,3271	4,2304	4,1717
250,9	1,3254	4,232	4,1732
251,2	1,3236	4,2385	4,1797
251,4	1,3219	4,2402	4,1815
251,6	1,3201	4,2422	4,1835
251,9	1,3184	4,2469	4,1882
252,1	1,3166	4,2518	4,1931
252,3	1,3149	4,2549	4,1961
252,6	1,3131	4,2597	4,201
252,8	1,3114	4,264	4,2053
253	1,3097	4,2691	4,2103
253,3	1,3079	4,2736	4,2149
253,5	1,3062	4,2743	4,2156
253,7	1,3044	4,2795	4,2208
254	1,3027	4,2866	4,2278
254,2	1,3009	4,2868	4,2281
254,4	1,2992	4,2893	4,2305
254,7	1,2974	4,2926	4,2338
254,9	1,2957	4,2981	4,2394
255,1	1,2939	4,3007	4,242
255,3	1,2922	4,3058	4,2471
255,6	1,2905	4,3102	4,2515
255,8	1,2887	4,3145	4,2558
256	1,287	4,3237	4,2649
256,3	1,2852	4,3247	4,2659
256,5	1,2835	4,3247	4,2659
256,7	1,2817	4,3255	4,2667
257	1,28	4,3342	4,2754
257,2	1,2782	4,3348	4,276
257,4	1,2765	4,3387	4,28
257,7	1,2747	4,3427	4,2839
257,9	1,273	4,3487	4,29
258,1	1,2713	4,352	4,2933
258,4	1,2695	4,3551	4,2964
258,6	1,2678	4,3611	4,3024
258,8	1,266	4,3645	4,3058
259,1	1,2643	4,3739	4,3151
259,3	1,2625	4,3739	4,3151
259,5	1,2608	4,3739	4,3152
259,8	1,259	4,3751	4,3164
260	1,2573	4,383	4,3243
260,2	1,2555	4,3867	4,3279
260,5	1,2538	4,3892	4,3305
260,7	1,2521	4,3938	4,335
260,9	1,2503	4,3976	4,3388
261,2	1,2486	4,4021	4,3434
261,4	1,2468	4,4067	4,3479
261,6	1,2451	4,4165	4,3577
261,8	1,2433	4,4186	4,3598
262,1	1,2416	4,4186	4,3599
262,3	1,2398	4,4187	4,3599
262,5	1,2381	4,4256	4,3668
262,8	1,2363	4,4302	4,3715
263	1,2346	4,4326	4,3738
263,2	1,2329	4,4358	4,3771
263,5	1,2311	4,4403	4,3816
263,7	1,2294	4,4452	4,3865
263,9	1,2276	4,4493	4,3905
264,2	1,2259	4,4533	4,3946
264,4	1,2241	4,4573	4,3986
264,6	1,2224	4,4654	4,4067
264,9	1,2206	4,4656	4,4069
265,1	1,2189	4,4658	4,407
265,3	1,2171	4,473	4,4143
265,6	1,2154	4,4765	4,4178
265,8	1,2137	4,4781	4,4194
266	1,2119	4,4813	4,4226
266,3	1,2102	4,4873	4,4285
266,5	1,2084	4,4913	4,4326
266,7	1,2067	4,4946	4,4358
267	1,2049	4,4993	4,4405
267,2	1,2032	4,5042	4,4455
267,4	1,2014	4,5154	4,4566
267,7	1,1997	4,5151	4,4563
267,9	1,1979	4,5148	4,4561
268,1	1,1962	4,5151	4,4564
268,3	1,1945	4,5152	4,4565
268,6	1,1927	4,5264	4,4677
268,8	1,191	4,5281	4,4694
269	1,1892	4,5324	4,4737
269,3	1,1875	4,538	4,4793
269,5	1,1857	4,5415	4,4828
269,7	1,184	4,5445	4,4858
270	1,1822	4,5518	4,493
270,2	1,1805	4,5557	4,497
270,4	1,1787	4,559	4,5002
270,7	1,177	4,5619	4,5032
270,9	1,1753	4,5654	4,5067
271,1	1,1735	4,5711	4,5123
271,4	1,1718	4,5718	4,513
271,6	1,17	4,5753	4,5165
271,8	1,1683	4,579	4,5203
272,1	1,1665	4,5842	4,5255
272,3	1,1648	4,587	4,5282
272,5	1,163	4,5914	4,5326
272,8	1,1613	4,5968	4,538
273	1,1595	4,6018	4,5431
273,2	1,1578	4,6099	4,5512
273,5	1,1561	4,6102	4,5514
273,7	1,1543	4,6104	4,5516
273,9	1,1526	4,6148	4,5561
274,2	1,1508	4,6191	4,5604
274,4	1,1491	4,6217	4,563
274,6	1,1473	4,6244	4,5656
274,8	1,1456	4,6309	4,5722
275,1	1,1438	4,6342	4,5754
275,3	1,1421	4,6379	4,5791
275,5	1,1403	4,6433	4,5845
275,8	1,1386	4,6538	4,595
276	1,1369	4,6577	4,5989
276,2	1,1351	4,6575	4,5988
276,5	1,1334	4,6574	4,5986
276,7	1,1316	4,6573	4,5985
276,9	1,1299	4,6611	4,6024
277,2	1,1281	4,6694	4,6106
277,4	1,1264	4,6715	4,6127
277,6	1,1246	4,677	4,6183
277,9	1,1229	4,6807	4,6219
278,1	1,1211	4,6843	4,6255
278,3	1,1194	4,6893	4,6305
278,6	1,1176	4,6937	4,635
278,8	1,1159	4,7047	4,6459
279	1,1142	4,7049	4,6462
279,3	1,1124	4,7051	4,6463
279,5	1,1107	4,7052	4,6464
279,7	1,1089	4,7068	4,648
280	1,1072	4,716	4,6573
280,2	1,1054	4,7184	4,6596
280,4	1,1037	4,7218	4,663
280,7	1,1019	4,7279	4,6692
280,9	1,1002	4,7316	4,6728
281,1	1,0984	4,7353	4,6765
281,3	1,0967	4,7407	4,6819
281,6	1,095	4,7462	4,6874
281,8	1,0932	4,7515	4,6927
282	1,0915	4,7515	4,6928
282,3	1,0897	4,7515	4,6928
282,5	1,088	4,758	4,6992
282,7	1,0862	4,7629	4,7042
283	1,0845	4,7654	4,7066
283,2	1,0827	4,7679	4,7091
283,4	1,081	4,7735	4,7147
283,7	1,0792	4,7781	4,7193
283,9	1,0775	4,7813	4,7226
284,1	1,0758	4,7847	4,7259
284,4	1,074	4,7969	4,7381
284,6	1,0723	4,797	4,7382
284,8	1,0705	4,7971	4,7383
285,1	1,0688	4,7971	4,7384
285,3	1,067	4,8038	4,7451
285,5	1,0653	4,8114	4,7526
285,8	1,0635	4,8116	4,7529
286	1,0618	4,8149	4,7561
286,2	1,06	4,8203	4,7615
286,5	1,0583	4,8231	4,7643
286,7	1,0566	4,8283	4,7696
286,9	1,0548	4,8324	4,7736
287,1	1,0531	4,8364	4,7777
287,4	1,0513	4,8432	4,7844
287,6	1,0496	4,8489	4,7901
287,8	1,0478	4,8489	4,7901
288,1	1,0461	4,8489	4,7902
288,3	1,0443	4,8524	4,7936
288,5	1,0426	4,859	4,8003
288,8	1,0408	4,8622	4,8035
289	1,0391	4,8658	4,807
289,2	1,0374	4,8702	4,8115
289,5	1,0356	4,8742	4,8154
289,7	1,0339	4,8787	4,82
289,9	1,0321	4,8829	4,8242
290,2	1,0304	4,8885	4,8297
290,4	1,0286	4,8938	4,835
290,6	1,0269	4,8938	4,8351
290,9	1,0251	4,8981	4,8393
291,1	1,0234	4,9048	4,8461
291,3	1,0216	4,9051	4,8464
291,6	1,0199	4,9084	4,8497
291,8	1,0182	4,9114	4,8526
292	1,0164	4,917	4,8582
292,3	1,0147	4,9209	4,8622
292,5	1,0129	4,9245	4,8658
292,7	1,0112	4,9293	4,8706
293	1,0094	4,9342	4,8754
293,2	1,0077	4,9429	4,8842
293,4	1,0059	4,943	4,8843
293,6	1,0042	4,9432	4,8844
293,9	1,0024	4,944	4,8853
294,1	1,0007	4,9537	4,895
294,3	0,99895	4,9546	4,8959
294,6	0,99721	4,9586	4,8998
294,8	0,99546	4,962	4,9032
295	0,99372	4,9673	4,9086
295,3	0,99197	4,9703	4,9115
295,5	0,99023	4,9748	4,916
295,7	0,98848	4,9803	4,9215
296	0,98674	4,9932	4,9344
296,2	0,98499	4,9932	4,9344
296,4	0,98324	4,9932	4,9344
296,7	0,9815	4,9932	4,9344
296,9	0,97975	4,9932	4,9344
297,1	0,97801	5,0026	4,9439
297,4	0,97626	5,0055	4,9467
297,6	0,97452	5,0092	4,9504
297,8	0,97277	5,0145	4,9557
298,1	0,97103	5,0172	4,9584
298,3	0,96928	5,0219	4,9631
298,5	0,96753	5,0259	4,9671
298,8	0,96579	5,0323	4,9736
299	0,96404	5,0383	4,9795
299,2	0,9623	5,0383	4,9795
299,5	0,96055	5,0383	4,9796
299,7	0,95881	5,0438	4,985
299,9	0,95706	5,0491	4,9903
300,1	0,95532	5,051	4,9923
300,4	0,95357	5,0538	4,995
300,6	0,95182	5,0606	5,0019
300,8	0,95008	5,0645	5,0058
301,1	0,94833	5,0675	5,0087
301,3	0,94659	5,0726	5,0138
301,5	0,94484	5,0821	5,0233
301,8	0,9431	5,0827	5,024
302	0,94135	5,0829	5,0241
302,2	0,93961	5,0853	5,0265
302,5	0,93786	5,0903	5,0316
302,7	0,93611	5,0962	5,0375
302,9	0,93437	5,0978	5,039
303,2	0,93262	5,1007	5,0419
303,4	0,93088	5,1067	5,0479
303,6	0,92913	5,1104	5,0517
303,9	0,92739	5,1142	5,0555
304,1	0,92564	5,1186	5,0599
304,3	0,9239	5,127	5,0683
304,6	0,92215	5,13	5,0712
304,8	0,92041	5,1301	5,0713
305	0,91866	5,1302	5,0714
305,3	0,91691	5,1381	5,0794
305,5	0,91517	5,1427	5,0839
305,7	0,91342	5,1438	5,085
306	0,91168	5,1469	5,0882
306,2	0,90993	5,1528	5,0941
306,4	0,90819	5,1565	5,0978
306,6	0,90644	5,1602	5,1014
306,9	0,9047	5,1644	5,1056
307,1	0,90295	5,1704	5,1117
307,3	0,9012	5,1745	5,1158
307,6	0,89946	5,1773	5,1186
307,8	0,89771	5,1825	5,1237
308	0,89597	5,1843	5,1255
308,3	0,89422	5,1902	5,1314
308,5	0,89248	5,1905	5,1318
308,7	0,89073	5,1942	5,1354
309	0,88899	5,1977	5,139
309,2	0,88724	5,2037	5,145
309,4	0,88549	5,2069	5,1481
309,7	0,88375	5,2107	5,1519
309,9	0,882	5,2162	5,1574
310,1	0,88026	5,2211	5,1624
310,4	0,87851	5,2276	5,1688
310,6	0,87677	5,2277	5,1689
310,8	0,87502	5,2278	5,169
311,1	0,87328	5,2341	5,1753
311,3	0,87153	5,2385	5,1797
311,5	0,86978	5,2408	5,1821
311,8	0,86804	5,2439	5,1851
312	0,86629	5,2499	5,1911
312,2	0,86455	5,2531	5,1944
312,5	0,8628	5,2572	5,1985
312,7	0,86106	5,262	5,2033
312,9	0,85931	5,268	5,2092
313,1	0,85757	5,2766	5,2179
313,4	0,85582	5,2766	5,2179
313,6	0,85408	5,2766	5,2179
313,8	0,85233	5,2766	5,2179
314,1	0,85058	5,2812	5,2224
314,3	0,84884	5,288	5,2292
314,5	0,84709	5,2906	5,2319
314,8	0,84535	5,2955	5,2368
315	0,8436	5,3005	5,2417
315,2	0,84186	5,3045	5,2457
315,5	0,84011	5,3085	5,2497
315,7	0,83837	5,3125	5,2537
315,9	0,83662	5,3212	5,2624
316,2	0,83487	5,3214	5,2626
316,4	0,83313	5,3216	5,2628
316,6	0,83138	5,3263	5,2675
316,9	0,82964	5,3335	5,2748
317,1	0,82789	5,3348	5,2761
317,3	0,82615	5,3381	5,2794
317,6	0,8244	5,3408	5,2821
317,8	0,82266	5,3464	5,2876
318	0,82091	5,3504	5,2916
318,3	0,81916	5,3537	5,2949
318,5	0,81742	5,3591	5,3003
318,7	0,81567	5,3685	5,3097
319	0,81393	5,3685	5,3098
319,2	0,81218	5,3686	5,3098
319,4	0,81044	5,3728	5,314
319,6	0,80869	5,3768	5,3181
319,9	0,80695	5,3822	5,3235
320,1	0,8052	5,3837	5,3249
320,3	0,80345	5,387	5,3282
320,6	0,80171	5,393	5,3342
320,8	0,79996	5,3958	5,337
321	0,79822	5,4009	5,3422
321,3	0,79647	5,4051	5,3464
321,5	0,79473	5,4094	5,3506
321,7	0,79298	5,4168	5,3581
322	0,79124	5,4168	5,3581
322,2	0,78949	5,4181	5,3593
322,4	0,78775	5,4274	5,3687
322,7	0,786	5,4276	5,3688
322,9	0,78425	5,4298	5,3711
323,1	0,78251	5,4342	5,3755
323,4	0,78076	5,4391	5,3804
323,6	0,77902	5,4423	5,3836
323,8	0,77727	5,4466	5,3879
324,1	0,77553	5,451	5,3922
324,3	0,77378	5,4553	5,3965
324,5	0,77204	5,46	5,4013
324,8	0,77029	5,4676	5,4088
325	0,76854	5,4677	5,409
325,2	0,7668	5,4679	5,4091
325,5	0,76505	5,4743	5,4156
325,7	0,76331	5,4776	5,4189
325,9	0,76156	5,4813	5,4225
326,1	0,75982	5,4843	5,4256
326,4	0,75807	5,4895	5,4308
326,6	0,75633	5,4933	5,4345
326,8	0,75458	5,4971	5,4383
327,1	0,75283	5,5005	5,4418
327,3	0,75109	5,5091	5,4504
327,5	0,74934	5,5106	5,4519
327,8	0,7476	5,5143	5,4555
328	0,74585	5,5173	5,4585
328,2	0,74411	5,5202	5,4614
328,5	0,74236	5,5257	5,467
328,7	0,74062	5,527	5,4682
328,9	0,73887	5,5311	5,4723
329,2	0,73712	5,5348	5,476
329,4	0,73538	5,5398	5,481
329,6	0,73363	5,5429	5,4842
329,9	0,73189	5,5477	5,4889
330,1	0,73014	5,5526	5,4938
330,3	0,7284	5,5639	5,5052
330,6	0,72665	5,5637	5,5049
330,8	0,72491	5,5631	5,5043
331	0,72316	5,5632	5,5044
331,3	0,72142	5,5641	5,5053
331,5	0,71967	5,5745	5,5157
331,7	0,71792	5,5776	5,5189
332	0,71618	5,5818	5,523
332,2	0,71443	5,5859	5,5272
332,4	0,71269	5,5902	5,5314
332,6	0,71094	5,5943	5,5356
332,9	0,7092	5,5985	5,5397
333,1	0,70745	5,6093	5,5505
333,3	0,70571	5,6093	5,5506
333,6	0,70396	5,6093	5,5506
333,8	0,70221	5,6095	5,5508
334	0,70047	5,6201	5,5614
334,3	0,69872	5,6208	5,5621
334,5	0,69698	5,6234	5,5647
334,7	0,69523	5,6269	5,5681
335	0,69349	5,6327	5,5739
335,2	0,69174	5,6366	5,5778
335,4	0,69	5,6396	5,5809
335,7	0,68825	5,6449	5,5862
335,9	0,6865	5,6578	5,599
336,1	0,68476	5,6575	5,5987
336,4	0,68301	5,6571	5,5984
336,6	0,68127	5,6572	5,5985
336,8	0,67952	5,6574	5,5986
337,1	0,67778	5,6686	5,6098
337,3	0,67603	5,6704	5,6117
337,5	0,67429	5,6737	5,615
337,8	0,67254	5,6795	5,6208
338	0,67079	5,683	5,6243
338,2	0,66905	5,6866	5,6278
338,5	0,6673	5,6911	5,6323
338,7	0,66556	5,6977	5,639
338,9	0,66381	5,6982	5,6395
339,1	0,66207	5,7043	5,6456
339,4	0,66032	5,7059	5,6472
339,6	0,65858	5,7131	5,6544
339,8	0,65683	5,7144	5,6557
340,1	0,65509	5,7171	5,6583
340,3	0,65334	5,72	5,6612
340,5	0,65159	5,7268	5,668
340,8	0,64985	5,7298	5,6711
341	0,6481	5,7326	5,6739
341,2	0,64636	5,7373	5,6786
341,5	0,64461	5,7455	5,6867
341,7	0,64287	5,748	5,6893
341,9	0,64112	5,748	5,6893
342,2	0,63938	5,7536	5,6948
342,4	0,63763	5,759	5,7002
342,6	0,63588	5,7608	5,7021
342,9	0,63414	5,7626	5,7038
343,1	0,63239	5,7661	5,7074
343,3	0,63065	5,7721	5,7133
343,6	0,6289	5,7759	5,7171
343,8	0,62716	5,7796	5,7208
344	0,62541	5,7832	5,7245
344,3	0,62367	5,7893	5,7305
344,5	0,62192	5,7984	5,7397
344,7	0,62017	5,7985	5,7398
345	0,61843	5,7986	5,7398
345,2	0,61668	5,7987	5,7399
345,4	0,61494	5,8063	5,7476
345,6	0,61319
345,7	0,61272