File: Tests de traction/Fichiers source/04_07_2016/Sample_7_250N.txt
Time (s)	Load (N)	Machine Extension (mm)	Extension from Preload (mm)
0
0,09283	-0,00034085	0,000041563	-0,017397
0,1857	0,0017464	0,00008448	-0,017354
0,2785	0,0038337	0,0001274	-0,017311
0,3713	0,086783	0,0071343	-0,010304
0,4641	0,45088	0,01744	1,4506E-06
0,557	0,4403	0,01743	-8,5935E-06
0,6498	0,42972	0,017422	-0,000016364
0,7426	0,41914	0,017979	0,00054062
0,8354	0,43497	0,02021	0,0027715
0,9283	0,64292	0,025881	0,0084423
1,021	0,85087	0,031933	0,014495
1,114	1,0506	0,035693	0,018254
1,207	1,0447	0,035949	0,01851
1,3	1,0388	0,035959	0,01852
1,392	1,0329	0,035968	0,018529
1,485	1,027	0,035978	0,018539
1,578	1,021	0,035987	0,018548
1,671	1,0151	0,036017	0,018578
1,764	1,1116	0,039526	0,022087
1,857	1,2606	0,042164	0,024725
1,949	1,2968	0,042733	0,025294
2,042	1,3553	0,046089	0,028651
2,135	1,4485	0,047068	0,029629
2,228	1,4945	0,04774	0,030301
2,321	1,5405	0,049595	0,032156
2,413	1,5865	0,050246	0,032807
2,506	1,6325	0,051487	0,034048
2,599	1,6858	0,053185	0,035746
2,692	1,7417	0,054227	0,036788
2,785	1,8261	0,057112	0,039673
2,878	1,9336	0,059497	0,042059
2,97	1,9913	0,060565	0,043126
3,063	2,0422	0,062251	0,044812
3,156	2,0932	0,063596	0,046157
3,249	2,1442	0,06494	0,047502
3,342	2,1951	0,066146	0,048707
3,435	2,2461	0,067427	0,049988
3,527	2,374	0,070231	0,052792
3,62	2,4777	0,072013	0,054575
3,713	2,5911	0,074508	0,05707
3,806	2,8738	0,080417	0,062978
3,899	2,9203	0,083277	0,065839
3,992	2,9458	0,083285	0,065846
4,084	2,9396	0,083292	0,065854
4,177	2,9306	0,0833	0,065861
4,27	2,9217	0,083307	0,065869
4,363	2,9128	0,083315	0,065876
4,456	2,9038	0,083322	0,065884
4,549	2,8949	0,08333	0,065891
4,641	3,0549	0,086461	0,069022
4,734	3,2099	0,090335	0,072897
4,827	3,2808	0,091598	0,074159
4,92	3,3365	0,093223	0,075784
5,013	3,3922	0,095215	0,077776
5,105	3,4479	0,096051	0,078613
5,198	3,5036	0,097254	0,079816
5,291	3,5626	0,098023	0,080584
5,384	3,6241	0,099733	0,082294
5,477	3,6596	0,10199	0,084554
5,57	3,6947	0,10258	0,085137
5,662	3,7636	0,10434	0,086898
5,755	3,8695	0,10684	0,089401
5,848	3,9754	0,10906	0,091623
5,941	4,0381	0,11026	0,092818
6,034	4,091	0,11145	0,094013
6,127	4,1439	0,11265	0,095208
6,219	4,1967	0,11384	0,096403
6,312	4,2653	0,11648	0,099043
6,405	4,3411	0,1182	0,10076
6,498	4,417	0,11991	0,10247
6,591	4,5456	0,12218	0,10475
6,684	4,7447	0,12748	0,11004
6,776	4,7369	0,12852	0,11108
6,869	4,7291	0,12869	0,11125
6,962	4,7213	0,12886	0,11142
7,055	4,7135	0,12903	0,11159
7,148	4,7057	0,1292	0,11176
7,24	4,8653	0,13079	0,11335
7,333	5,144	0,13607	0,11863
7,426	5,1426	0,13638	0,11894
7,519	5,1411	0,13668	0,11924
7,612	5,1397	0,1377	0,12026
7,705	5,2038	0,14016	0,12272
7,797	5,2697	0,14144	0,124
7,89	5,3315	0,14251	0,12507
7,983	5,3607	0,14358	0,12614
8,076	5,3899	0,14466	0,12722
8,169	5,4425	0,14609	0,12865
8,262	5,5547	0,14819	0,13075
8,354	5,6304	0,14994	0,1325
8,447	5,676	0,15105	0,13361
8,54	5,7425	0,15356	0,13612
8,633	5,8174	0,15495	0,13751
8,726	5,8923	0,15634	0,1389
8,819	5,9532	0,15773	0,14029
8,911	5,9854	0,15912	0,14168
9,004	6,0176	0,16051	0,14307
9,097	6,0497	0,16191	0,14447
9,19	6,1798	0,1639	0,14646
9,283	6,2974	0,16624	0,1488
9,375	6,4131	0,16858	0,15114
9,468	6,499	0,17137	0,15393
9,561	6,5079	0,17328	0,15584
9,654	6,5168	0,17381	0,15637
9,747	6,5257	0,17435	0,15691
9,84	6,5346	0,17495	0,15751
9,932	6,6549	0,17797	0,16053
10,03	6,8016	0,18099	0,16355
10,12	6,8399	0,18172	0,16428
10,21	6,8578	0,18224	0,1648
10,3	6,8756	0,18325	0,16581
10,4	6,924	0,18473	0,1673
10,49	6,9756	0,18622	0,16878
10,58	7,0272	0,18771	0,17027
10,68	7,0788	0,1892	0,17176
10,77	7,1304	0,19069	0,17325
10,86	7,1623	0,19159	0,17415
10,95	7,1698	0,19216	0,17472
11,05	7,2403	0,19393	0,1765
11,14	7,3339	0,19612	0,17869
11,23	7,3771	0,19736	0,17992
11,32	7,4382	0,19908	0,18164
11,42	7,5094	0,20111	0,18367
11,51	7,5807	0,20314	0,1857
11,6	7,6519	0,20481	0,18737
11,7	7,6897	0,20572	0,18828
11,79	7,7094	0,20662	0,18918
11,88	7,735	0,20773	0,19029
11,97	7,8351	0,21059	0,19315
12,07	7,9351	0,21242	0,19498
12,16	7,9989	0,21398	0,19654
12,25	8,0606	0,21554	0,1981
12,35	8,1223	0,2171	0,19966
12,44	8,3045	0,22097	0,20354
12,53	8,6514	0,22762	0,21018
12,62	8,6103	0,22813	0,21069
12,72	8,5692	0,22865	0,21121
12,81	8,528	0,22887	0,21143
12,9	8,4869	0,22888	0,21144
13	8,4458	0,22889	0,21145
13,09	8,4047	0,2289	0,21146
13,18	8,3839	0,22891	0,21147
13,27	8,3694	0,22891	0,21148
13,37	8,3549	0,22892	0,21148
13,46	8,4849	0,23213	0,21469
13,55	8,666	0,23436	0,21693
13,65	8,7917	0,23976	0,22232
13,74	8,8696	0,24041	0,22297
13,83	8,8919	0,24058	0,22314
13,92	8,9141	0,24273	0,2253
14,02	8,9359	0,24389	0,22645
14,11	8,9578	0,24429	0,22685
14,2	8,9933	0,24679	0,22935
14,3	9,0685	0,24899	0,23155
14,39	9,1419	0,25006	0,23262
14,48	9,2145	0,25182	0,23438
14,57	9,257	0,2542	0,23676
14,67	9,2854	0,25538	0,23794
14,76	9,3137	0,25655	0,23911
14,85	9,3421	0,25772	0,24029
14,95	9,4267	0,25942	0,24198
15,04	9,5537	0,26249	0,24505
15,13	9,6614	0,26584	0,2484
15,22	9,7694	0,26906	0,25162
15,32	9,757	0,26953	0,25209
15,41	9,7433	0,27	0,25256
15,5	9,7295	0,27047	0,25303
15,59	9,7158	0,27094	0,2535
15,69	10,023	0,27764	0,2602
15,78	9,9901	0,27767	0,26023
15,87	9,9568	0,27769	0,26026
15,97	9,9235	0,27772	0,26029
16,06	9,8902	0,27775	0,26031
16,15	9,9192	0,27909	0,26165
16,24	10,058	0,28269	0,26525
16,34	10,117	0,28397	0,26653
16,43	10,13	0,2853	0,26786
16,52	10,142	0,28665	0,26921
16,62	10,155	0,28765	0,27021
16,71	10,193	0,28792	0,27048
16,8	10,262	0,28997	0,27253
16,89	10,317	0,29178	0,27434
16,99	10,326	0,29312	0,27568
17,08	10,386	0,29525	0,27781
17,17	10,446	0,29738	0,27994
17,27	10,483	0,29878	0,28134
17,36	10,503	0,3	0,28256
17,45	10,523	0,30123	0,28379
17,54	10,543	0,30245	0,28501
17,64	10,563	0,30368	0,28624
17,73	10,658	0,30652	0,28908
17,82	10,693	0,30832	0,29088
17,92	10,724	0,30997	0,29253
18,01	10,756	0,31162	0,29418
18,1	10,788	0,31327	0,29583
18,19	10,868	0,31642	0,29898
18,29	11,187	0,32394	0,3065
18,38	11,143	0,32404	0,3066
18,47	11,099	0,32414	0,3067
18,57	11,055	0,32424	0,3068
18,66	11,011	0,32433	0,30689
18,75	10,967	0,32441	0,30698
18,84	10,923	0,32447	0,30703
18,94	10,879	0,32453	0,30709
19,03	10,849	0,32458	0,30714
19,12	10,828	0,32464	0,3072
19,22	10,922	0,32698	0,30954
19,31	11,2	0,3339	0,31646
19,4	11,199	0,33483	0,31739
19,49	11,198	0,33527	0,31783
19,59	11,198	0,336	0,31856
19,68	11,237	0,33744	0,32
19,77	11,276	0,33898	0,32154
19,86	11,317	0,34111	0,32367
19,96	11,36	0,34319	0,32575
20,05	11,403	0,34441	0,32697
20,14	11,581	0,34794	0,3305
20,24	11,601	0,34899	0,33156
20,33	11,621	0,35005	0,33261
20,42	11,64	0,35157	0,33413
20,51	11,68	0,35321	0,33578
20,61	11,723	0,35486	0,33742
20,7	11,765	0,3565	0,33906
20,79	11,807	0,35814	0,3407
20,89	11,85	0,35979	0,34235
20,98	11,892	0,36143	0,34399
21,07	12,057	0,36637	0,34893
21,16	12,322	0,37302	0,35558
21,26	12,265	0,37302	0,35558
21,35	12,207	0,37303	0,35559
21,44	12,149	0,37303	0,3556
21,54	12,092	0,37304	0,3556
21,63	12,034	0,37305	0,35561
21,72	12,003	0,37305	0,35561
21,81	11,977	0,37306	0,35562
21,91	11,951	0,37306	0,35563
22	11,925	0,37307	0,35563
22,09	11,932	0,3735	0,35606
22,19	12,258	0,38138	0,36394
22,28	12,32	0,38227	0,36483
22,37	12,307	0,3829	0,36547
22,46	12,318	0,38438	0,36694
22,56	12,343	0,38493	0,36749
22,65	12,372	0,3878	0,37036
22,74	12,404	0,39007	0,37263
22,84	12,437	0,39117	0,37373
22,93	12,476	0,39219	0,37475
23,02	12,541	0,39481	0,37737
23,11	12,607	0,39645	0,37901
23,21	12,646	0,39802	0,38058
23,3	12,679	0,39959	0,38215
23,39	12,711	0,40116	0,38373
23,49	12,743	0,40274	0,3853
23,58	12,775	0,40431	0,38687
23,67	12,808	0,40592	0,38848
23,76	12,84	0,40757	0,39013
23,86	12,877	0,40941	0,39197
23,95	13,049	0,41457	0,39713
24,04	13,211	0,41898	0,40154
24,13	13,159	0,419	0,40156
24,23	13,107	0,41902	0,40158
24,32	13,055	0,41904	0,4016
24,41	13,003	0,41906	0,40163
24,51	12,95	0,41909	0,40165
24,6	12,911	0,41911	0,40167
24,69	12,887	0,41913	0,40169
24,78	12,945	0,42145	0,40401
24,88	13,214	0,42712	0,40968
24,97	13,21	0,42817	0,41074
25,06	13,185	0,42853	0,41109
25,16	13,16	0,42876	0,41132
25,25	13,171	0,43111	0,41367
25,34	13,193	0,43165	0,41421
25,43	13,242	0,43359	0,41615
25,53	13,29	0,43566	0,41822
25,62	13,339	0,43722	0,41978
25,71	13,477	0,44176	0,42432
25,81	13,486	0,44282	0,42539
25,9	13,45	0,44323	0,42579
25,99	13,413	0,44339	0,42595
26,08	13,413	0,44451	0,42707
26,18	13,444	0,44641	0,42897
26,27	13,476	0,44831	0,43088
26,36	13,507	0,45007	0,43263
26,46	13,556	0,45155	0,43411
26,55	13,757	0,457	0,43956
26,64	14,055	0,46369	0,44625
26,73	13,973	0,46465	0,44721
26,83	13,891	0,46467	0,44723
26,92	13,808	0,4647	0,44726
27,01	13,726	0,46472	0,44728
27,11	13,671	0,46474	0,4473
27,2	13,637	0,46476	0,44733
27,29	13,602	0,46479	0,44735
27,38	13,568	0,46481	0,44737
27,48	13,533	0,46483	0,44739
27,57	13,499	0,46486	0,44742
27,66	13,747	0,47036	0,45292
27,76	13,927	0,47551	0,45808
27,85	13,888	0,4759	0,45846
27,94	13,85	0,47629	0,45885
28,03	13,811	0,47678	0,45934
28,13	13,807	0,47887	0,46143
28,22	13,805	0,47933	0,46189
28,31	13,825	0,4819	0,46446
28,4	13,869	0,4834	0,46597
28,5	13,905	0,48494	0,4675
28,59	13,938	0,48755	0,47011
28,68	13,97	0,48987	0,47243
28,78	14,002	0,49144	0,474
28,87	13,993	0,493	0,47556
28,96	13,982	0,49456	0,47712
29,05	13,97	0,49611	0,47867
29,15	13,959	0,49767	0,48023
29,24	13,948	0,49923	0,48179
29,33	13,937	0,50079	0,48335
29,43	13,926	0,50229	0,48486
29,52	13,883	0,50372	0,48628
29,61	14,064	0,50974	0,4923
29,7	14,088	0,51245	0,49501
29,8	14,005	0,51252	0,49508
29,89	13,922	0,51259	0,49516
29,98	13,839	0,51267	0,49523
30,08	13,756	0,51274	0,4953
30,17	13,708	0,51281	0,49537
30,26	13,676	0,51288	0,49544
30,35	13,643	0,51332	0,49588
30,45	13,652	0,5143	0,49687
30,54	13,855	0,52013	0,50269
30,63	13,937	0,52306	0,50562
30,73	13,907	0,52372	0,50628
30,82	13,876	0,52399	0,50656
30,91	13,859	0,52549	0,50805
31	13,918	0,52655	0,50912
31,1	13,942	0,52739	0,50996
31,19	13,967	0,52949	0,51205
31,28	13,991	0,53101	0,51357
31,38	14,007	0,53461	0,51717
31,47	14,021	0,53593	0,51849
31,56	14,034	0,53724	0,51981
31,65	14,048	0,53856	0,52112
31,75	14,062	0,53988	0,52244
31,84	14,076	0,54119	0,52375
31,93	14,204	0,54289	0,52545
32,03	14,15	0,54529	0,52785
32,12	14,214	0,54732	0,52988
32,21	14,277	0,54934	0,53191
32,3	14,341	0,55197	0,53453
32,4	14,335	0,55492	0,53749
32,49	14,294	0,55577	0,53833
32,58	14,252	0,55595	0,53851
32,67	14,21	0,55612	0,53868
32,77	14,168	0,55635	0,53891
32,86	14,215	0,55738	0,53994
32,95	14,401	0,56276	0,54533
33,05	14,375	0,56324	0,5458
33,14	14,335	0,56371	0,54627
33,23	14,296	0,5645	0,54706
33,32	14,397	0,5682	0,55076
33,42	14,439	0,5704	0,55296
33,51	14,421	0,57107	0,55363
33,6	14,395	0,57152	0,55408
33,7	14,37	0,57196	0,55453
33,79	14,35	0,57258	0,55515
33,88	14,367	0,57382	0,55638
33,97	14,385	0,57641	0,55897
34,07	14,402	0,57792	0,56048
34,16	14,42	0,57942	0,56198
34,25	14,458	0,58114	0,56371
34,35	14,497	0,58289	0,56546
34,44	14,525	0,58464	0,56721
34,53	14,539	0,58639	0,56896
34,62	14,552	0,58814	0,5707
34,72	14,566	0,58983	0,57239
34,81	14,58	0,59143	0,57399
34,9	14,593	0,59302	0,57558
35	14,607	0,59461	0,57717
35,09	14,621	0,59621	0,57877
35,18	14,634	0,59793	0,58049
35,27	14,74	0,6021	0,58466
35,37	14,761	0,6046	0,58716
35,46	14,713	0,60517	0,58773
35,55	14,669	0,60523	0,58779
35,65	14,635	0,6053	0,58786
35,74	14,6	0,60539	0,58796
35,83	14,645	0,60813	0,59069
35,92	14,712	0,61056	0,59312
36,02	14,726	0,61136	0,59392
36,11	14,728	0,61296	0,59552
36,2	14,819	0,61764	0,6002
36,3	14,828	0,61813	0,60069
36,39	14,79	0,61863	0,60119
36,48	14,752	0,61913	0,60169
36,57	14,714	0,61962	0,60218
36,67	14,702	0,6207	0,60326
36,76	14,708	0,62213	0,6047
36,85	14,714	0,62379	0,60636
36,94	14,729	0,62552	0,60808
37,04	14,756	0,62725	0,60981
37,13	14,844	0,62932	0,61189
37,22	14,884	0,63155	0,61411
37,32	14,912	0,63361	0,61617
37,41	14,904	0,63522	0,61778
37,5	14,905	0,63683	0,61939
37,59	14,913	0,63844	0,621
37,69	14,922	0,64005	0,62261
37,78	14,93	0,64165	0,62422
37,87	14,938	0,64326	0,62582
37,97	14,946	0,64479	0,62735
38,06	14,955	0,64626	0,62882
38,15	14,961	0,64773	0,63029
38,24	15,181	0,65369	0,63625
38,34	15,299	0,65824	0,6408
38,43	15,21	0,65827	0,64083
38,52	15,121	0,65829	0,64085
38,62	15,031	0,65831	0,64087
38,71	14,942	0,65833	0,64089
38,8	14,853	0,65835	0,64092
38,89	14,814	0,65838	0,64094
38,99	14,776	0,6584	0,64096
39,08	14,738	0,65842	0,64098
39,17	14,784	0,66014	0,6427
39,27	15,109	0,66794	0,6505
39,36	15,057	0,66809	0,65065
39,45	15,005	0,66823	0,65079
39,54	14,953	0,66849	0,65105
39,64	14,923	0,67102	0,65358
39,73	14,922	0,67192	0,65448
39,82	14,922	0,6732	0,65576
39,92	14,939	0,67588	0,65844
40,01	14,964	0,67823	0,66079
40,1	14,989	0,67962	0,66219
40,19	14,998	0,68064	0,6632
40,29	14,985	0,68135	0,66392
40,38	14,987	0,68373	0,6663
40,47	15,015	0,68562	0,66818
40,57	15,043	0,68735	0,66991
40,66	15,055	0,68908	0,67164
40,75	15,067	0,69081	0,67337
40,84	15,079	0,69254	0,6751
40,94	15,09	0,69426	0,67682
41,03	15,248	0,7002	0,68276
41,12	15,223	0,70107	0,68363
41,22	15,154	0,7012	0,68376
41,31	15,084	0,70133	0,68389
41,4	15,014	0,70145	0,68402
41,49	14,944	0,70158	0,68414
41,59	14,943	0,70247	0,68504
41,68	15,049	0,70687	0,68943
41,77	15,033	0,70802	0,69058
41,86	15,017	0,709	0,69157
41,96	15,095	0,71253	0,69509
42,05	15,143	0,71436	0,69692
42,14	15,093	0,71482	0,69738
42,24	15,044	0,71528	0,69784
42,33	14,994	0,71574	0,6983
42,42	14,986	0,71684	0,6994
42,51	15,004	0,71848	0,70104
42,61	15,021	0,72012	0,70268
42,7	15,039	0,72184	0,7044
42,79	15,056	0,72363	0,70619
42,89	15,046	0,72542	0,70798
42,98	15,026	0,72721	0,70977
43,07	15,006	0,72878	0,71134
43,16	14,986	0,72969	0,71225
43,26	14,966	0,73059	0,71315
43,35	15,027	0,73312	0,71568
43,44	15,039	0,73493	0,71749
43,54	15,051	0,73674	0,7193
43,63	15,063	0,73855	0,72112
43,72	15,075	0,74037	0,72293
43,81	15,087	0,74223	0,7248
43,91	15,196	0,74724	0,7298
44	15,168	0,7478	0,73036
44,09	15,104	0,74788	0,73044
44,19	15,039	0,74796	0,73052
44,28	14,975	0,74804	0,7306
44,37	14,97	0,7505	0,73306
44,46	14,987	0,75281	0,73538
44,56	15,003	0,75571	0,73827
44,65	15,02	0,75689	0,73945
44,74	15,005	0,75807	0,74063
44,84	14,979	0,75924	0,74181
44,93	14,953	0,76042	0,74298
45,02	14,927	0,7616	0,74416
45,11	14,902	0,76268	0,74524
45,21	14,913	0,7632	0,74576
45,3	14,899	0,76482	0,74738
45,39	14,885	0,76639	0,74895
45,49	14,922	0,7678	0,75037
45,58	14,953	0,76915	0,75171
45,67	14,927	0,77049	0,75305
45,76	14,922	0,77256	0,75512
45,86	14,918	0,77464	0,75721
45,95	14,914	0,77672	0,75929
46,04	14,909	0,77865	0,76121
46,13	14,905	0,77999	0,76255
46,23	14,901	0,78133	0,76389
46,32	14,897	0,78267	0,76523
46,41	14,906	0,78401	0,76658
46,51	14,938	0,78632	0,76888
46,6	15,012	0,78995	0,77251
46,69	14,979	0,79111	0,77367
46,78	14,924	0,79175	0,77431
46,88	14,878	0,79258	0,77514
46,97	15,248	0,80223	0,78479
47,06	15,153	0,80226	0,78482
47,16	15,058	0,80229	0,78485
47,25	14,963	0,80231	0,78487
47,34	14,868	0,80234	0,7849
47,43	14,777	0,80237	0,78493
47,53	14,723	0,80239	0,78496
47,62	14,67	0,80242	0,78498
47,71	14,616	0,80245	0,78501
47,81	14,576	0,8032	0,78576
47,9	14,823	0,81001	0,79257
47,99	14,845	0,81081	0,79338
48,08	14,792	0,81185	0,79441
48,18	14,757	0,81352	0,79608
48,27	14,733	0,81427	0,79683
48,36	14,712	0,81622	0,79879
48,46	14,7	0,81769	0,80025
48,55	14,688	0,81841	0,80097
48,64	14,782	0,82126	0,80382
48,73	14,76	0,8242	0,80676
48,83	14,738	0,82505	0,80761
48,92	14,715	0,8259	0,80846
49,01	14,693	0,82684	0,80941
49,11	14,671	0,82779	0,81035
49,2	14,82	0,83245	0,81501
49,29	14,798	0,83357	0,81613
49,38	14,776	0,83469	0,81725
49,48	14,868	0,8385	0,82107
49,57	14,896	0,84133	0,82389
49,66	14,83	0,84189	0,82445
49,76	14,765	0,84244	0,82501
49,85	14,699	0,843	0,82556
49,94	14,662	0,84409	0,82665
50,03	14,753	0,84816	0,83072
50,13	14,712	0,84898	0,83154
50,22	14,648	0,84944	0,832
50,31	14,584	0,84989	0,83246
50,4	14,519	0,85035	0,83291
50,5	14,717	0,85539	0,83795
50,59	14,663	0,856	0,83856
50,68	14,61	0,85661	0,83917
50,78	14,556	0,8573	0,83986
50,87	14,523	0,85811	0,84067
50,96	14,496	0,85893	0,84149
51,05	14,475	0,86066	0,84322
51,15	14,456	0,86252	0,84508
51,24	14,472	0,86393	0,84649
51,33	14,52	0,86615	0,84871
51,43	14,555	0,86852	0,85108
51,52	14,534	0,86987	0,85244
51,61	14,513	0,87123	0,85379
51,7	14,493	0,87259	0,85515
51,8	14,472	0,87394	0,8565
51,89	14,451	0,8753	0,85786
51,98	14,432	0,87663	0,85919
52,08	14,476	0,87858	0,86114
52,17	14,489	0,88054	0,8631
52,26	14,48	0,8825	0,86506
52,35	14,509	0,88562	0,86818
52,45	14,565	0,88906	0,87162
52,54	14,492	0,88921	0,87177
52,63	14,418	0,88936	0,87192
52,73	14,345	0,88951	0,87208
52,82	14,364	0,89202	0,87458
52,91	14,439	0,89579	0,87835
53	14,364	0,89604	0,8786
53,1	14,279	0,89629	0,87886
53,19	14,268	0,89806	0,88062
53,28	14,262	0,89975	0,88231
53,38	14,257	0,9013	0,88386
53,47	14,251	0,9024	0,88496
53,56	14,246	0,9035	0,88607
53,65	14,224	0,90461	0,88717
53,75	14,197	0,90571	0,88827
53,84	14,169	0,90751	0,89007
53,93	14,145	0,90923	0,8918
54,03	14,12	0,90977	0,89233
54,12	14,166	0,91206	0,89462
54,21	14,213	0,91435	0,89691
54,3	14,205	0,91634	0,8989
54,4	14,18	0,9175	0,90006
54,49	14,155	0,91866	0,90122
54,58	14,208	0,92137	0,90393
54,67	14,202	0,92298	0,90554
54,77	14,195	0,92459	0,90715
54,86	14,188	0,9262	0,90876
54,95	14,181	0,92781	0,91037
55,05	14,174	0,92942	0,91198
55,14	14,168	0,93103	0,91359
55,23	14,161	0,93264	0,9152
55,32	14,326	0,93839	0,92095
55,42	14,425	0,94278	0,92534
55,51	14,319	0,94279	0,92535
55,6	14,213	0,94279	0,92535
55,7	14,107	0,94279	0,92535
55,79	14,001	0,94279	0,92535
55,88	13,932	0,94279	0,92535
55,97	13,882	0,9428	0,92536
56,07	13,833	0,9428	0,92536
56,16	13,784	0,9428	0,92536
56,25	13,816	0,94481	0,92737
56,35	14,007	0,95031	0,93287
56,44	13,978	0,95193	0,93449
56,53	13,949	0,95298	0,93554
56,62	13,92	0,95352	0,93609
56,72	13,895	0,95543	0,93799
56,81	13,878	0,95635	0,93892
56,9	13,861	0,95778	0,94034
57	13,921	0,961	0,94356
57,09	13,945	0,96276	0,94532
57,18	13,928	0,9642	0,94676
57,27	13,911	0,96565	0,94821
57,37	13,894	0,9671	0,94966
57,46	13,877	0,96831	0,95087
57,55	13,875	0,96893	0,95149
57,65	13,895	0,97152	0,95408
57,74	13,916	0,974	0,95656
57,83	13,924	0,9759	0,95846
57,92	13,924	0,97762	0,96018
58,02	13,96	0,97941	0,96197
58,11	13,966	0,98304	0,9656
58,2	13,95	0,98401	0,96657
58,3	13,914	0,98498	0,96754
58,39	13,879	0,98595	0,96851
58,48	13,843	0,98692	0,96948
58,57	13,839	0,98847	0,97103
58,67	13,826	0,98993	0,97249
58,76	13,805	0,9913	0,97386
58,85	13,784	0,99268	0,97524
58,94	13,762	0,99411	0,97667
59,04	13,741	0,99559	0,97815
59,13	13,758	0,99707	0,97963
59,22	13,732	0,99855	0,98111
59,32	13,706	0,99948	0,98204
59,41	13,68	1,0003	0,98287
59,5	13,663	1,0014	0,98391
59,59	13,654	1,0026	0,98514
59,69	13,685	1,0038	0,98636
59,78	13,718	1,0063	0,98886
59,87	13,752	1,0093	0,9919
59,97	13,748	1,0109	0,99344
60,06	13,716	1,0119	0,99446
60,15	13,685	1,0129	0,99547
60,24	13,654	1,0139	0,99648
60,34	13,632	1,0158	0,99833
60,43	13,636	1,0179	1,0005
60,52	13,64	1,02	1,0026
60,62	13,644	1,0221	1,0047
60,71	13,649	1,0238	1,0063
60,8	13,653	1,0254	1,008
60,89	13,657	1,0271	1,0096
60,99	13,689	1,0287	1,0113
61,08	13,856	1,0349	1,0174
61,17	13,865	1,0374	1,0199
61,27	13,777	1,0374	1,02
61,36	13,69	1,0374	1,02
61,45	13,603	1,0374	1,02
61,54	13,516	1,0375	1,02
61,64	13,465	1,0375	1,02
61,73	13,42	1,0375	1,0201
61,82	13,375	1,0375	1,0201
61,92	13,489	1,0416	1,0242
62,01	13,58	1,046	1,0286
62,1	13,541	1,0462	1,0288
62,19	13,503	1,0469	1,0295
62,29	13,484	1,0476	1,0301
62,38	13,471	1,0496	1,0322
62,47	13,459	1,0504	1,033
62,57	13,455	1,0527	1,0353
62,66	13,459	1,0542	1,0367
62,75	13,491	1,0557	1,0382
62,84	13,532	1,0584	1,041
62,94	13,554	1,0606	1,0432
63,03	13,52	1,0622	1,0448
63,12	13,513	1,0638	1,0464
63,21	13,508	1,0654	1,048
63,31	13,504	1,067	1,0496
63,4	13,499	1,0686	1,0512
63,49	13,494	1,0703	1,0528
63,59	13,489	1,0719	1,0544
63,68	13,485	1,0735	1,056
63,77	13,48	1,0751	1,0576
63,86	13,475	1,0767	1,0592
63,96	13,76	1,0836	1,0662
64,05	13,704	1,0856	1,0682
64,14	13,596	1,0857	1,0682
64,24	13,488	1,0857	1,0683
64,33	13,38	1,0857	1,0683
64,42	13,334	1,0858	1,0683
64,51	13,289	1,0858	1,0684
64,61	13,244	1,0859	1,0684
64,7	13,199	1,0859	1,0685
64,79	13,154	1,086	1,0686
64,89	13,333	1,0912	1,0737
64,98	13,417	1,0947	1,0773
65,07	13,374	1,0951	1,0777
65,16	13,336	1,0968	1,0794
65,26	13,318	1,0977	1,0803
65,35	13,301	1,0983	1,0808
65,44	13,288	1,1006	1,0831
65,54	13,286	1,1018	1,0844
65,63	13,36	1,1048	1,0873
65,72	13,398	1,107	1,0896
65,81	13,368	1,1081	1,0907
65,91	13,339	1,1093	1,0918
66	13,325	1,1104	1,093
66,09	13,312	1,1116	1,0942
66,19	13,298	1,1128	1,0954
66,28	13,352	1,1158	1,0984
66,37	13,377	1,1181	1,1007
66,46	13,393	1,1202	1,1028
66,56	13,409	1,1223	1,1048
66,65	13,627	1,1307	1,1132
66,74	13,558	1,1311	1,1136
66,84	13,475	1,1311	1,1136
66,93	13,391	1,1311	1,1136
67,02	13,308	1,1311	1,1136
67,11	13,225	1,1311	1,1137
67,21	13,154	1,1311	1,1137
67,3	13,117	1,1311	1,1137
67,39	13,08	1,1311	1,1137
67,48	13,043	1,1311	1,1137
67,58	13,139	1,1351	1,1177
67,67	13,268	1,1403	1,1229
67,76	13,258	1,1409	1,1235
67,86	13,242	1,1422	1,1248
67,95	13,217	1,1432	1,1257
68,04	13,191	1,1435	1,126
68,13	13,177	1,1455	1,1281
68,23	13,172	1,1464	1,1289
68,32	13,174	1,1485	1,1311
68,41	13,198	1,151	1,1336
68,51	13,221	1,1531	1,1357
68,6	13,222	1,1546	1,1371
68,69	13,204	1,156	1,1386
68,78	13,186	1,1575	1,14
68,88	13,169	1,1583	1,1408
68,97	13,179	1,1599	1,1425
69,06	13,23	1,1623	1,1448
69,16	13,219	1,1637	1,1463
69,25	13,212	1,1669	1,1495
69,34	13,207	1,1678	1,1504
69,43	13,204	1,1687	1,1513
69,53	13,287	1,1733	1,1559
69,62	13,438	1,1791	1,1617
69,71	13,358	1,1792	1,1617
69,81	13,278	1,1792	1,1617
69,9	13,198	1,1792	1,1618
69,99	13,118	1,1792	1,1618
70,08	13,039	1,1792	1,1618
70,18	12,965	1,1792	1,1618
70,27	12,93	1,1793	1,1618
70,36	12,895	1,1793	1,1618
70,46	13,008	1,1839	1,1665
70,55	13,08	1,1875	1,1701
70,64	13,103	1,189	1,1716
70,73	13,076	1,1898	1,1724
70,83	13,05	1,1909	1,1735
70,92	13,023	1,1913	1,1739
71,01	13,003	1,1935	1,1761
71,11	12,994	1,195	1,1776
71,2	12,985	1,1961	1,1786
71,29	13,025	1,1984	1,1809
71,38	13,073	1,2007	1,1832
71,48	13,047	1,2027	1,1853
71,57	13,022	1,2038	1,1863
71,66	12,997	1,2048	1,1874
71,75	12,972	1,2059	1,1885
71,85	13,01	1,2083	1,1909
71,94	13,011	1,2101	1,1927
72,03	13,012	1,2119	1,1944
72,13	13,013	1,2136	1,1962
72,22	13,014	1,2154	1,1979
72,31	13,015	1,2171	1,1997
72,4	13,144	1,2223	1,2049
72,5	13,203	1,2269	1,2094
72,59	13,131	1,2269	1,2095
72,68	13,059	1,2269	1,2095
72,78	12,987	1,2269	1,2095
72,87	12,915	1,2269	1,2095
72,96	12,843	1,2269	1,2095
73,05	12,782	1,227	1,2095
73,15	12,755	1,227	1,2095
73,24	12,762	1,2285	1,2111
73,33	12,877	1,2326	1,2152
73,43	12,918	1,2353	1,2179
73,52	12,935	1,2368	1,2194
73,61	12,908	1,2383	1,2208
73,7	12,88	1,2394	1,222
73,8	12,853	1,2397	1,2223
73,89	12,856	1,2419	1,2245
73,98	12,879	1,2432	1,2258
74,08	12,87	1,2437	1,2263
74,17	12,875	1,247	1,2295
74,26	12,889	1,2496	1,2322
74,35	12,903	1,251	1,2335
74,45	12,896	1,2518	1,2343
74,54	12,885	1,2529	1,2355
74,63	12,874	1,254	1,2366
74,73	12,864	1,2551	1,2377
74,82	12,88	1,2578	1,2403
74,91	12,902	1,2602	1,2427
75	12,903	1,2619	1,2444
75,1	12,905	1,2636	1,2461
75,19	12,911	1,2656	1,2482
75,28	12,993	1,2695	1,2521
75,38	12,976	1,2713	1,2539
75,47	12,915	1,2715	1,2541
75,56	12,854	1,2717	1,2543
75,65	12,793	1,2719	1,2545
75,75	12,732	1,2721	1,2547
75,84	12,84	1,2765	1,259
75,93	12,877	1,2784	1,261
76,02	12,856	1,2795	1,2621
76,12	12,834	1,2807	1,2633
76,21	12,813	1,2819	1,2644
76,3	12,797	1,283	1,2656
76,4	12,78	1,2843	1,2669
76,49	12,763	1,2856	1,2682
76,58	12,747	1,2866	1,2692
76,67	12,749	1,2876	1,2701
76,77	12,751	1,2892	1,2717
76,86	12,752	1,2909	1,2735
76,95	12,765	1,2932	1,2757
77,05	12,79	1,2947	1,2772
77,14	12,779	1,2962	1,2788
77,23	12,768	1,2977	1,2803
77,32	12,758	1,2993	1,2818
77,42	12,747	1,3008	1,2834
77,51	12,736	1,3023	1,2849
77,6	12,756	1,3037	1,2862
77,7	12,773	1,3056	1,2881
77,79	12,785	1,3076	1,2902
77,88	12,798	1,3095	1,2921
77,97	12,811	1,3112	1,2938
78,07	12,826	1,3129	1,2955
78,16	12,931	1,3185	1,301
78,25	12,973	1,3206	1,3032
78,35	12,911	1,3207	1,3032
78,44	12,849	1,3207	1,3033
78,53	12,786	1,3208	1,3033
78,62	12,724	1,3208	1,3034
78,72	12,661	1,3209	1,3035
78,81	12,6	1,3209	1,3035
78,9	12,638	1,324	1,3065
79	12,838	1,3305	1,313
79,09	12,84	1,3316	1,3142
79,18	12,768	1,3317	1,3143
79,27	12,697	1,3318	1,3143
79,37	12,667	1,3331	1,3157
79,46	12,671	1,334	1,3166
79,55	12,675	1,3357	1,3183
79,65	12,675	1,3376	1,3202
79,74	12,674	1,3384	1,321
79,83	12,673	1,3403	1,3228
79,92	12,684	1,3425	1,3251
80,02	12,696	1,3445	1,3271
80,11	12,709	1,3458	1,3284
80,2	12,713	1,3473	1,3298
80,3	12,717	1,3492	1,3318
80,39	12,719	1,3512	1,3338
80,48	12,72	1,3532	1,3357
80,57	12,722	1,3548	1,3373
80,67	12,724	1,3563	1,3389
80,76	12,726	1,3579	1,3405
80,85	12,728	1,3595	1,3421
80,94	12,73	1,3611	1,3436
81,04	12,779	1,3644	1,347
81,13	12,867	1,3685	1,351
81,22	12,85	1,3703	1,3529
81,32	12,789	1,3704	1,3529
81,41	12,729	1,3704	1,353
81,5	12,668	1,3704	1,353
81,59	12,607	1,3705	1,353
81,69	12,546	1,3705	1,3531
81,78	12,577	1,3718	1,3544
81,87	12,613	1,3755	1,358
81,97	12,635	1,3769	1,3595
82,06	12,66	1,38	1,3626
82,15	12,687	1,3814	1,364
82,24	12,655	1,3816	1,3642
82,34	12,624	1,3821	1,3647
82,43	12,598	1,3836	1,3661
82,52	12,598	1,3857	1,3683
82,62	12,599	1,3865	1,3691
82,71	12,623	1,3886	1,3711
82,8	12,648	1,3903	1,3729
82,89	12,66	1,392	1,3745
82,99	12,641	1,3935	1,3761
83,08	12,704	1,3966	1,3791
83,17	12,673	1,3978	1,3803
83,27	12,664	1,399	1,3816
83,36	12,66	1,4003	1,3829
83,45	12,656	1,4018	1,3844
83,54	12,652	1,4034	1,3859
83,64	12,648	1,4049	1,3874
83,73	12,652	1,4072	1,3898
83,82	12,676	1,4101	1,3927
83,92	12,801	1,4148	1,3973
84,01	12,793	1,4175	1,4
84,1	12,707	1,4175	1,4
84,19	12,621	1,4175	1,4
84,29	12,535	1,4175	1,4001
84,38	12,478	1,4175	1,4001
84,47	12,437	1,4175	1,4001
84,57	12,395	1,4175	1,4001
84,66	12,374	1,4187	1,4012
84,75	12,604	1,426	1,4085
84,84	12,602	1,4277	1,4102
84,94	12,519	1,4278	1,4103
85,03	12,436	1,4278	1,4104
85,12	12,365	1,429	1,4116
85,21	12,328	1,43	1,4126
85,31	12,294	1,4317	1,4143
85,4	12,269	1,4333	1,4158
85,49	12,253	1,4339	1,4165
85,59	12,245	1,4374	1,4199
85,68	12,16	1,4393	1,4219
85,77	11,971	1,441	1,4236
85,86	10,226	1,4426	1,4251
85,96	8,3692	1,4439	1,4265
86,05	8,278	1,4453	1,4279
86,14	8,1869	1,4467	1,4292
86,24	8,0958	1,4477	1,4302
86,33	8,0177	1,4501	1,4327
86,42	7,9729	1,452	1,4346
86,51	7,9282	1,4539	1,4365
86,61	7,8835	1,4559	1,4385
86,7	7,8387	1,4578	1,4403
86,79	7,794	1,4596	1,4422
86,89	7,7493	1,4614	1,444
86,98	7,7879	1,4642	1,4468
87,07	7,8092	1,4674	1,4499
87,16	7,7382	1,4674	1,4499
87,26	7,6672	1,4674	1,45
87,35	7,5963	1,4674	1,45
87,44	7,5253	1,4674	1,45
87,54	7,5266	1,47	1,4526
87,63	7,548	1,4723	1,4549
87,72	7,5197	1,4731	1,4556
87,81	7,4914	1,4746	1,4572
87,91	7,4631	1,4761	1,4587
88	7,4348	1,4773	1,4599
88,09	7,4064	1,478	1,4606
88,19	7,3781	1,4796	1,4621
88,28	7,3498	1,4808	1,4634
88,37	7,334	1,4826	1,4651
88,46	7,3409	1,4851	1,4677
88,56	7,3354	1,4874	1,4699
88,65	7,295	1,4886	1,4711
88,74	7,2547	1,4898	1,4723
88,84	7,2143	1,491	1,4736
88,93	7,2072	1,4925	1,4751
89,02	7,2044	1,4945	1,4771
89,11	7,1899	1,4965	1,479
89,21	7,1529	1,4982	1,4807
89,3	7,1172	1,4999	1,4824
89,39	7,0979	1,5016	1,4841
89,48	7,0786	1,5033	1,4858
89,58	7,1341	1,5075	1,4901
89,67	7,1359	1,512	1,4946
89,76	7,013	1,5122	1,4947
89,86	6,89	1,5123	1,4948
89,95	6,8075	1,5124	1,495
90,04	6,7589	1,5125	1,4951
90,13	6,7102	1,5127	1,4952
90,23	6,6616	1,5127	1,4953
90,32	6,613	1,5128	1,4954
90,41	6,6891	1,5168	1,4993
90,51	6,7473	1,52	1,5025
90,6	6,7526	1,5226	1,5052
90,69	6,691	1,5228	1,5054
90,78	6,6188	1,5237	1,5063
90,88	6,5872	1,5247	1,5073
90,97	6,5631	1,5254	1,508
91,06	6,5479	1,5277	1,5103
91,16	6,5387	1,5287	1,5112
91,25	6,5275	1,5307	1,5133
91,34	6,5151	1,5331	1,5156
91,43	6,5026	1,5353	1,5178
91,53	6,4901	1,5365	1,519
91,62	6,4776	1,5376	1,5202
91,71	6,4592	1,5388	1,5213
91,81	6,4405	1,5401	1,5226
91,9	6,4246	1,5423	1,5249
91,99	6,4176	1,5446	1,5272
92,08	6,4107	1,5469	1,5294
92,18	6,4038	1,5486	1,5311
92,27	6,3968	1,5498	1,5323
92,36	6,4068	1,5511	1,5336
92,46	6,549	1,5596	1,5421
92,55	6,448	1,5606	1,5432
92,64	6,3374	1,5606	1,5432
92,73	6,236	1,5606	1,5432
92,83	6,1908	1,5606	1,5432
92,92	6,1456	1,5606	1,5432
93,01	6,1004	1,5607	1,5432
93,11	6,0551	1,5607	1,5432
93,2	6,0099	1,5607	1,5432
93,29	6,0141	1,5613	1,5439
93,38	6,2032	1,5693	1,5519
93,48	6,1548	1,5696	1,5521
93,57	6,1065	1,5705	1,5531
93,66	6,0582	1,5713	1,5538
93,75	6,0211	1,5724	1,555
93,85	6,0237	1,5742	1,5567
93,94	6,033	1,5746	1,5571
94,03	6,0457	1,5776	1,5602
94,13	6,0585	1,5801	1,5627
94,22	6,0712	1,5822	1,5647
94,31	6,048	1,5836	1,5662
94,4	6,0203	1,5849	1,5674
94,5	5,9925	1,586	1,5686
94,59	5,9647	1,5863	1,5689
94,68	5,9638	1,5888	1,5714
94,78	5,9701	1,5908	1,5733
94,87	5,9625	1,5926	1,5751
94,96	5,9548	1,5944	1,5769
95,05	5,9471	1,5962	1,5787
95,15	5,9395	1,5979	1,5805
95,24	5,9379	1,5994	1,5819
95,33	6,0116	1,6045	1,5871
95,43	6,0158	1,608	1,5905
95,52	5,9342	1,608	1,5906
95,61	5,8526	1,6081	1,5906
95,7	5,7934	1,6081	1,5907
95,8	5,7541	1,6081	1,5907
95,89	5,7149	1,6082	1,5908
95,98	5,6757	1,6082	1,5908
96,08	5,6364	1,6083	1,5908
96,17	5,655	1,6105	1,593
96,26	5,7934	1,6168	1,5994
96,35	5,7737	1,6175	1,6001
96,45	5,7412	1,6183	1,6009
96,54	5,7087	1,6189	1,6015
96,63	5,685	1,6204	1,603
96,73	5,682	1,6218	1,6043
96,82	5,679	1,6228	1,6054
96,91	5,6766	1,6257	1,6082
97	5,6743	1,6273	1,6099
97,1	5,672	1,629	1,6115
97,19	5,6696	1,6306	1,6132
97,28	5,6673	1,6323	1,6149
97,38	5,665	1,6345	1,6171
97,47	5,6627	1,6365	1,6191
97,56	5,6568	1,6373	1,6199
97,65	5,648	1,6388	1,6214
97,75	5,6392	1,6406	1,6231
97,84	5,6304	1,6423	1,6249
97,93	5,6216	1,644	1,6266
98,02	5,6163	1,6458	1,6283
98,12	5,6124	1,6484	1,631
98,21	5,7474	1,656	1,6385
98,3	5,6732	1,656	1,6385
98,4	5,5991	1,656	1,6385
98,49	5,5249	1,656	1,6385
98,58	5,4728	1,656	1,6385
98,67	5,4445	1,656	1,6385
98,77	5,4162	1,656	1,6385
98,86	5,3878	1,656	1,6385
98,95	5,3595	1,656	1,6385
99,05	5,404	1,6602	1,6428
99,14	5,4752	1,6639	1,6465
99,23	5,4499	1,6652	1,6478
99,32	5,4246	1,6659	1,6484
99,42	5,3992	1,6667	1,6492
99,51	5,435	1,6688	1,6514
99,6	5,4245	1,6696	1,6522
99,7	5,414	1,6713	1,6538
99,79	5,4107	1,673	1,6556
99,88	5,4126	1,6742	1,6567
99,97	5,4094	1,6768	1,6594
100,1	5,3961	1,6788	1,6613
100,2	5,3827	1,6807	1,6633
100,3	5,3694	1,6822	1,6648
100,3	5,356	1,6837	1,6662
100,4	5,3427	1,6851	1,6677
100,5	5,3294	1,6862	1,6687
100,6	5,3392	1,6868	1,6694
100,7	5,3645	1,6899	1,6725
100,8	5,3915	1,6944	1,677
100,9	5,4375	1,6988	1,6813
101	5,3872	1,6988	1,6814
101,1	5,3368	1,6989	1,6815
101,2	5,2865	1,699	1,6816
101,3	5,2361	1,6991	1,6816
101,4	5,1865	1,6992	1,6817
101,5	5,1875	1,7001	1,6827
101,6	5,2549	1,7049	1,6875
101,6	5,254	1,7071	1,6897
101,7	5,2296	1,7075	1,6901
101,8	5,2053	1,7089	1,6915
101,9	5,1886	1,7106	1,6932
102	5,181	1,7117	1,6943
102,1	5,1735	1,7129	1,6954
102,2	5,166	1,714	1,6966
102,3	5,1576	1,7151	1,6977
102,4	5,1487	1,7162	1,6987
102,5	5,1412	1,7174	1,6999
102,6	5,1346	1,7187	1,7013
102,7	5,1663	1,7219	1,7045
102,8	5,1681	1,7235	1,7061
102,9	5,1526	1,7252	1,7077
102,9	5,137	1,7268	1,7094
103	5,1215	1,7284	1,711
103,1	5,106	1,7299	1,7125
103,2	5,0905	1,7307	1,7132
103,3	5,1144	1,7327	1,7152
103,4	5,1246	1,7349	1,7175
103,5	5,1222	1,7363	1,7189
103,6	5,1197	1,7377	1,7202
103,7	5,1164	1,7404	1,7229
103,8	5,0919	1,743	1,7255
103,9	5,076	1,7436	1,7262
104	5,0864	1,7455	1,728
104,1	5,0589	1,749	1,7316
104,2	5,0314	1,7494	1,7319
104,2	5,0039	1,7497	1,7323
104,3	4,9764	1,7501	1,7326
104,4	4,9489	1,7514	1,7339
104,5	4,9782	1,7531	1,7357
104,6	4,9742	1,7549	1,7375
104,7	4,9702	1,7567	1,7393
104,8	4,9661	1,7583	1,7409
104,9	4,9621	1,7598	1,7423
105	4,9581	1,7608	1,7434
105,1	4,9523	1,7617	1,7443
105,2	4,9438	1,7627	1,7452
105,3	4,9353	1,7638	1,7464
105,4	4,9266	1,7658	1,7484
105,5	4,9178	1,7675	1,7501
105,5	4,9224	1,7694	1,752
105,6	4,9334	1,7717	1,7542
105,7	4,9444	1,7737	1,7562
105,8	4,9312	1,7748	1,7574
105,9	4,9164	1,776	1,7585
106	4,9016	1,7771	1,7597
106,1	4,8868	1,7788	1,7614
106,2	4,9096	1,7808	1,7633
106,3	4,9015	1,7824	1,765
106,4	4,8934	1,7841	1,7667
106,5	4,8853	1,7858	1,7683
106,6	4,8772	1,7874	1,77
106,7	4,883	1,7907	1,7732
106,8	5,0093	1,8	1,7826
106,8	4,934	1,8001	1,7826
106,9	4,8586	1,8001	1,7827
107	4,7833	1,8001	1,7827
107,1	4,708	1,8001	1,7827
107,2	4,6792	1,8002	1,7827
107,3	4,6565	1,8002	1,7827
107,4	4,6339	1,8002	1,7828
107,5	4,6113	1,8002	1,7828
107,6	4,5887	1,8003	1,7828
107,7	4,5661	1,8	1,7825
107,8	4,6049	1,8043	1,7869
107,9	4,6922	1,8098	1,7924
108	4,702	1,8102	1,7928
108,1	4,683	1,8116	1,7941
108,1	4,664	1,812	1,7946
108,2	4,6451	1,8144	1,797
108,3	4,6387	1,8152	1,7977
108,4	4,6323	1,817	1,7995
108,5	4,6235	1,8196	1,8021
108,6	4,6121	1,8217	1,8042
108,7	4,6007	1,8231	1,8057
108,8	4,5893	1,8242	1,8068
108,9	4,5779	1,8253	1,8078
109	4,5689	1,8263	1,8089
109,1	4,5837	1,8284	1,8109
109,2	4,5984	1,8307	1,8132
109,3	4,6009	1,8328	1,8153
109,3	4,5945	1,8347	1,8173
109,4	4,5881	1,8366	1,8192
109,5	4,5827	1,8386	1,8211
109,6	4,6567	1,8436	1,8262
109,7	4,6116	1,8445	1,8271
109,8	4,5665	1,8446	1,8271
109,9	4,5214	1,8446	1,8272
110	4,4762	1,8447	1,8272
110,1	4,4419	1,8447	1,8273
110,2	4,437	1,8452	1,8278
110,3	4,4576	1,849	1,8316
110,4	4,4935	1,8516	1,8342
110,5	4,4818	1,8529	1,8355
110,6	4,4701	1,8546	1,8372
110,6	4,4584	1,8554	1,838
110,7	4,4467	1,8566	1,8391
110,8	4,4351	1,8577	1,8403
110,9	4,4234	1,8585	1,841
111	4,4118	1,8605	1,843
111,1	4,4005	1,8625	1,8451
111,2	4,3892	1,8635	1,8461
111,3	4,4046	1,865	1,8476
111,4	4,4212	1,8676	1,8501
111,5	4,4121	1,8692	1,8517
111,6	4,3959	1,8705	1,8531
111,7	4,3797	1,8719	1,8545
111,8	4,3634	1,8733	1,8558
111,9	4,3383	1,8746	1,8572
111,9	4,3333	1,8763	1,8589
112	4,3364	1,8782	1,8608
112,1	4,3394	1,8801	1,8627
112,2	4,3424	1,882	1,8646
112,3	4,3597	1,8839	1,8664
112,4	4,3963	1,8889	1,8714
112,5	4,4226	1,8922	1,8747
112,6	4,3809	1,8922	1,8748
112,7	4,3393	1,8923	1,8749
112,8	4,2977	1,8924	1,8749
112,9	4,2561	1,8925	1,875
113	4,2144	1,8925	1,8751
113,1	4,1844	1,8926	1,8752
113,2	4,1779	1,8934	1,876
113,2	4,2052	1,8971	1,8796
113,3	4,2906	1,9043	1,8869
113,4	4,2943	1,9049	1,8875
113,5	4,2592	1,9049	1,8875
113,6	4,2242	1,9049	1,8875
113,7	4,1891	1,9049	1,8875
113,8	4,172	1,9062	1,8887
113,9	4,1765	1,9082	1,8907
114	4,1719	1,9099	1,8925
114,1	4,1674	1,9108	1,8934
114,2	4,1635	1,9129	1,8954
114,3	4,1626	1,9152	1,8977
114,4	4,1616	1,9175	1,9
114,5	4,1607	1,9187	1,9012
114,5	4,1462	1,9197	1,9022
114,6	4,1302	1,9207	1,9032
114,7	4,1275	1,9233	1,9059
114,8	4,1316	1,925	1,9075
114,9	4,1306	1,9267	1,9092
115	4,1214	1,9283	1,9109
115,1	4,1122	1,9301	1,9126
115,2	4,1029	1,9322	1,9147
115,3	4,0937	1,9342	1,9168
115,4	4,164	1,9394	1,922
115,5	4,1764	1,9425	1,9251
115,6	4,1265	1,9426	1,9251
115,7	4,0766	1,9426	1,9252
115,8	4,0267	1,9426	1,9252
115,8	3,9815	1,9427	1,9252
115,9	3,9658	1,9427	1,9253
116	3,9501	1,9428	1,9253
116,1	3,9344	1,9428	1,9254
116,2	3,9315	1,946	1,9286
116,3	3,9574	1,9486	1,9312
116,4	3,9913	1,9514	1,9339
116,5	4,0216	1,954	1,9366
116,6	3,9987	1,9544	1,9369
116,7	3,9758	1,9546	1,9372
116,8	3,957	1,9565	1,939
116,9	3,952	1,958	1,9406
117	3,9471	1,9586	1,9412
117,1	3,9421	1,9611	1,9437
117,1	3,935	1,9636	1,9461
117,2	3,9251	1,9648	1,9474
117,3	3,9152	1,9657	1,9482
117,4	3,9076	1,9674	1,95
117,5	3,92	1,9695	1,9521
117,6	3,922	1,9714	1,954
117,7	3,9098	1,9729	1,9555
117,8	3,8975	1,9744	1,957
117,9	3,8853	1,9757	1,9582
118	3,8731	1,9766	1,9591
118,1	3,8933	1,9799	1,9624
118,2	4,0435	1,9902	1,9728
118,3	3,9767	1,9916	1,9741
118,4	3,9018	1,9914	1,974
118,4	3,8269	1,9912	1,9738
118,5	3,7648	1,991	1,9736
118,6	3,744	1,9909	1,9734
118,7	3,7232	1,9907	1,9732
118,8	3,7024	1,9905	1,9731
118,9	3,6815	1,9908	1,9734
119	3,6607	1,9909	1,9734
119,1	3,6399	1,9909	1,9735
119,2	3,6191	1,9915	1,974
119,3	3,6565	1,9942	1,9767
119,4	3,7485	2,0014	1,984
119,5	3,7376	2,0019	1,9845
119,6	3,7268	2,0024	1,985
119,7	3,7159	2,0048	1,9873
119,7	3,705	2,0061	1,9887
119,8	3,6941	2,0065	1,989
119,9	3,6829	2,0099	1,9924
120	3,6708	2,0118	1,9944
120,1	3,6586	2,0134	1,996
120,2	3,6465	2,0151	1,9976
120,3	3,6344	2,0167	1,9992
120,4	3,6223	2,0177	2,0002
120,5	3,6101	2,0183	2,0009
120,6	3,6357	2,0206	2,0031
120,7	3,6365	2,0233	2,0059
120,8	3,6358	2,0256	2,0082
120,9	3,6224	2,0264	2,009
121	3,6089	2,0277	2,0103
121	3,6374	2,0332	2,0158
121,1	3,652	2,0374	2,02
121,2	3,6049	2,0374	2,02
121,3	3,5578	2,0375	2,02
121,4	3,5107	2,0375	2,0201
121,5	3,4636	2,0375	2,0201
121,6	3,4432	2,0376	2,0201
121,7	3,4246	2,0376	2,0202
121,8	3,4059	2,0376	2,0202
121,9	3,4033	2,0403	2,0229
122	3,4494	2,0442	2,0268
122,1	3,4646	2,0464	2,0289
122,2	3,4462	2,0471	2,0297
122,3	3,4279	2,0484	2,031
122,3	3,4096	2,0494	2,032
122,4	3,3913	2,05	2,0326
122,5	3,3836	2,0517	2,0342
122,6	3,3818	2,0527	2,0353
122,7	3,3798	2,0551	2,0377
122,8	3,3771	2,057	2,0396
122,9	3,3744	2,0593	2,0419
123	3,3712	2,0614	2,044
123,1	3,3558	2,0633	2,0459
123,2	3,3404	2,0651	2,0477
123,3	3,325	2,0666	2,0492
123,4	3,3096	2,0681	2,0507
123,5	3,2942	2,0696	2,0521
123,6	3,2788	2,0711	2,0536
123,6	3,2634	2,0725	2,0551
123,7	3,2487	2,0742	2,0568
123,8	3,2345	2,0759	2,0585
123,9	3,2532	2,0792	2,0618
124	3,3342	2,0873	2,0699
124,1	3,2646	2,0874	2,07
124,2	3,195	2,0875	2,07
124,3	3,1378	2,0876	2,0701
124,4	3,1141	2,0876	2,0702
124,5	3,0904	2,0877	2,0702
124,6	3,0667	2,0877	2,0702
124,7	3,043	2,0877	2,0702
124,8	3,0193	2,0877	2,0702
124,9	2,9956	2,0877	2,0702
124,9	2,9917	2,0877	2,0702
125	2,9894	2,089	2,0716
125,1	3,0957	2,0971	2,0796
125,2	3,0717	2,0975	2,0801
125,3	3,0442	2,0982	2,0808
125,4	3,0167	2,0997	2,0823
125,5	2,9922	2,1009	2,0835
125,6	2,9798	2,1034	2,0859
125,7	2,9674	2,1058	2,0884
125,8	2,955	2,1076	2,0902
125,9	2,9391	2,1087	2,0913
126	2,9182	2,1098	2,0924
126,1	2,8972	2,1112	2,0938
126,2	2,8762	2,1131	2,0957
126,2	2,8538	2,1151	2,0976
126,3	2,8311	2,117	2,0996
126,4	2,8084	2,1189	2,1014
126,5	2,7857	2,1205	2,1031
126,6	2,7629	2,1222	2,1047
126,7	2,7623	2,1264	2,109
126,8	2,791	2,1328	2,1153
126,9	2,7277	2,1328	2,1153
127	2,6644	2,1328	2,1154
127,1	2,6012	2,1328	2,1154
127,2	2,5759	2,1328	2,1154
127,3	2,558	2,1329	2,1154
127,4	2,54	2,1329	2,1154
127,5	2,5221	2,1329	2,1155
127,5	2,5042	2,1329	2,1155
127,6	2,5172	2,1362	2,1187
127,7	2,5915	2,1416	2,1242
127,8	2,5686	2,1417	2,1243
127,9	2,5457	2,1429	2,1254
128	2,5227	2,1433	2,1259
128,1	2,5093	2,1451	2,1277
128,2	2,5064	2,1461	2,1286
128,3	2,5035	2,1473	2,1298
128,4	2,4997	2,1497	2,1323
128,5	2,4952	2,1511	2,1336
128,6	2,5222	2,1548	2,1374
128,7	2,536	2,1566	2,1392
128,8	2,5126	2,1571	2,1397
128,8	2,4892	2,1576	2,1402
128,9	2,4794	2,1588	2,1414
129	2,4855	2,1609	2,1434
129,1	2,4915	2,1627	2,1453
129,2	2,4968	2,1637	2,1463
129,3	2,5019	2,1655	2,1481
129,4	2,5273	2,1693	2,1518
129,5	2,6074	2,1772	2,1597
129,6	2,58	2,1772	2,1598
129,7	2,5526	2,1773	2,1598
129,8	2,5252	2,1773	2,1599
129,9	2,4978	2,1774	2,1599
130	2,4728	2,1774	2,16
130,1	2,466	2,1775	2,16
130,1	2,4591	2,1775	2,1601
130,2	2,4523	2,1776	2,1601
130,3	2,4479	2,1793	2,1619
130,4	2,5087	2,1854	2,168
130,5	2,5506	2,1882	2,1707
130,6	2,538	2,1882	2,1708
130,7	2,5254	2,1894	2,1719
130,8	2,5128	2,1903	2,1728
130,9	2,5002	2,191	2,1736
131	2,5009	2,1931	2,1756
131,1	2,5039	2,1937	2,1763
131,2	2,5069	2,1957	2,1782
131,3	2,5099	2,1972	2,1798
131,3	2,512	2,201	2,1836
131,4	2,5133	2,2025	2,1851
131,5	2,5147	2,204	2,1865
131,6	2,516	2,2055	2,188
131,7	2,5173	2,207	2,1895
131,8	2,5187	2,2085	2,191
131,9	2,52	2,2101	2,1926
132	2,5213	2,2117	2,1942
132,1	2,5227	2,2133	2,1959
132,2	2,524	2,2149	2,1975
132,3	2,5253	2,2165	2,1991
132,4	2,5266	2,2181	2,2007
132,5	2,5572	2,2232	2,2058
132,6	2,6111	2,228	2,2106
132,6	2,5812	2,228	2,2106
132,7	2,5513	2,2281	2,2106
132,8	2,5214	2,2281	2,2106
132,9	2,4915	2,2281	2,2106
133	2,4616	2,2281	2,2106
133,1	2,4475	2,2281	2,2106
133,2	2,4434	2,2281	2,2107
133,3	2,4394	2,2281	2,2107
133,4	2,4426	2,2316	2,2142
133,5	2,4872	2,2375	2,22
133,6	2,479	2,2385	2,2211
133,7	2,4541	2,2388	2,2214
133,8	2,4292	2,2391	2,2217
133,9	2,4043	2,2409	2,2234
133,9	2,3797	2,2415	2,2241
134	2,3602	2,2435	2,2261
134,1	2,3406	2,2449	2,2275
134,2	2,3211	2,2474	2,23
134,3	2,2782	2,2499	2,2324
134,4	2,1864	2,2513	2,2338
134,5	2,0543	2,2526	2,2352
134,6	-0,12732	2,254	2,2366
134,7	-0,12745	2,2554	2,2379
134,8	-0,12757	2,2567	2,2392
134,9	-0,1277	2,2587	2,2412
135	-0,12783	2,2611	2,2436
135,1	-0,12795	2,2641	2,2467
135,2	-0,12808	2,2673	2,2499
135,2	-0,12821	2,27	2,2525
135,3	-0,12833	2,2701	2,2526
135,4	-0,12846	2,2702	2,2528
135,5	-0,12859	2,2703	2,2529
135,6	-0,12871	2,2709	2,2535
135,7	-0,12884	2,2747	2,2572
135,8	-0,12897	2,2759	2,2584
135,9	-0,12909	2,277	2,2595
136	-0,12922	2,2781	2,2606
136,1	-0,12935	2,2791	2,2617
136,2	-0,12947	2,2836	2,2662
136,3	-0,1296	2,2854	2,2679
136,4	-0,12973	2,2854	2,268
136,5	-0,12985	2,2854	2,268
136,5	-0,12998	2,2856	2,2682
136,6	-0,13011	2,2867	2,2692
136,7	-0,13023	2,2883	2,2709
136,8	-0,13036	2,2901	2,2726
136,9	-0,13049	2,2916	2,2741
137	-0,13061	2,2935	2,2761
137,1	-0,13074	2,2955	2,278
137,2	-0,13087	2,2974	2,28
137,3	-0,13099	2,2988	2,2813
137,4	-0,13112	2,3	2,2826
137,5	-0,13125	2,3018	2,2844
137,6	-0,13137	2,3037	2,2863
137,7	-0,1315	2,3056	2,2882
137,8	-0,13163	2,3075	2,29
137,8	-0,13175	2,3094	2,2919
137,9	-0,13188	2,3113	2,2938
138	-0,095743	2,3137	2,2962
138,1	-0,10173	2,3172	2,2997
138,2	-0,10407	2,3181	2,3006
138,2		2,3181	2,3006