File: Tests de traction/Fichiers source/04_07_2016/Sample_5_250N.txt
Time (s)	Load (N)	Machine Extension (mm)	Extension from Preload (mm)
0
0,1715	-0,0012876	0,000067628	-0,014162
0,3429	0,0070566	0,00013643	-0,014094
0,5144	0,4073	0,014231	1,2463E-06
0,6858	0,39004	0,014216	-0,000014057
0,8573	0,37278	0,015236	0,0010065
1,029	0,60451	0,022074	0,0078439
1,2	0,75247	0,02828	0,01405
1,372	0,87865	0,030647	0,016417
1,543	1,0887	0,037971	0,023741
1,715	1,0838	0,038055	0,023825
1,886	1,0788	0,038139	0,023909
2,057	1,0738	0,038223	0,023993
2,229	1,1766	0,043264	0,029034
2,4	1,3706	0,048259	0,034029
2,572	1,3755	0,048629	0,034399
2,743	1,4174	0,051796	0,037566
2,915	1,4836	0,053577	0,039347
3,086	1,5524	0,056711	0,042481
3,258	1,6383	0,061342	0,047112
3,429	1,7241	0,063577	0,049347
3,601	1,7739	0,065812	0,051582
3,772	1,8769	0,069097	0,054867
3,943	1,9786	0,072582	0,058352
4,115	2,187	0,079632	0,065402
4,286	2,3606	0,085785	0,071555
4,458	2,3367	0,085817	0,071587
4,629	2,3129	0,085849	0,071619
4,801	2,289	0,085881	0,071651
4,972	2,2652	0,085913	0,071683
5,144	2,2689	0,086855	0,072625
5,315	2,5294	0,09675	0,08252
5,486	2,552	0,097772	0,083542
5,658	2,5746	0,099419	0,085189
5,829	2,6767	0,10288	0,088652
6,001	2,7409	0,10624	0,092012
6,172	2,8173	0,10922	0,094988
6,344	2,8867	0,11169	0,097464
6,515	2,9488	0,11479	0,10056
6,687	3,0235	0,11849	0,10426
6,858	3,1098	0,12162	0,10739
7,03	3,2352	0,12627	0,11204
7,201	3,3483	0,13088	0,11665
7,372	3,326	0,13117	0,11694
7,544	3,3038	0,13144	0,11721
7,715	3,2919	0,1328	0,11857
7,887	3,4615	0,1395	0,12527
8,058	3,4992	0,14169	0,12746
8,23	3,537	0,14397	0,12974
8,401	3,5804	0,14564	0,13141
8,573	3,6734	0,14867	0,13444
8,744	3,7063	0,15081	0,13658
8,916	3,7938	0,15506	0,14083
9,087	3,8403	0,1576	0,14337
9,258	3,8615	0,15938	0,14515
9,43	3,9679	0,16356	0,14933
9,601	4,0261	0,16664	0,15241
9,773	4,0799	0,16973	0,1555
9,944	4,1977	0,17444	0,16021
10,12	4,1776	0,17542	0,16119
10,29	4,3992	0,18357	0,16934
10,46	4,3629	0,18377	0,16954
10,63	4,3265	0,18397	0,16974
10,8	4,2902	0,18418	0,16995
10,97	4,4853	0,19164	0,17741
11,14	4,5125	0,19249	0,17826
11,32	4,5278	0,19381	0,17958
11,49	4,5692	0,19703	0,1828
11,66	4,6178	0,19909	0,18486
11,83	4,6658	0,20382	0,18959
12	4,7128	0,20655	0,19232
12,17	4,7599	0,20928	0,19505
12,34	4,8069	0,21201	0,19778
12,52	4,8658	0,21485	0,20062
12,69	5,1188	0,22465	0,21042
12,86	5,2183	0,22934	0,21511
13,03	5,1674	0,22932	0,21509
13,2	5,1165	0,22931	0,21508
13,37	5,0669	0,2293	0,21507
13,54	5,0452	0,22928	0,21505
13,72	5,0234	0,22952	0,21529
13,89	5,2491	0,23813	0,2239
14,06	5,3308	0,24123	0,227
14,23	5,3065	0,24315	0,22892
14,4	5,3283	0,24514	0,23091
14,57	5,3674	0,2481	0,23387
14,74	5,4611	0,25206	0,23783
14,92	5,4951	0,25537	0,24114
15,09	5,5326	0,25722	0,24299
15,26	5,5923	0,26061	0,24638
15,43	5,6586	0,26454	0,25031
15,6	5,7258	0,26773	0,2535
15,77	6,0505	0,27964	0,26541
15,95	5,9803	0,2792	0,26497
16,12	5,9102	0,27882	0,26459
16,29	5,8401	0,27884	0,26461
16,46	5,808	0,27886	0,26463
16,63	5,7899	0,27888	0,26465
16,8	5,7718	0,28015	0,26592
16,97	6,0342	0,28946	0,27523
17,15	6,0215	0,29215	0,27792
17,32	6,0589	0,2935	0,27927
17,49	6,0855	0,29796	0,28373
17,66	6,1051	0,29993	0,2857
17,83	6,1872	0,30387	0,28964
18	6,2317	0,30703	0,2928
18,17	6,2761	0,31004	0,29581
18,35	6,3291	0,31305	0,29882
18,52	6,3981	0,31634	0,30211
18,69	6,5315	0,32363	0,3094
18,86	6,4842	0,32375	0,30952
19,03	6,437	0,32378	0,30955
19,2	6,3897	0,32386	0,30963
19,37	6,5231	0,32975	0,31552
19,55	6,5925	0,33493	0,3207
19,72	6,597	0,33576	0,32153
19,89	6,5939	0,33661	0,32238
20,06	6,6225	0,33958	0,32535
20,23	6,6576	0,34231	0,32808
20,4	6,6922	0,34601	0,33178
20,57	6,7266	0,34977	0,33554
20,75	6,7611	0,35203	0,3378
20,92	6,788	0,35401	0,33978
21,09	6,8341	0,35819	0,34396
21,26	6,9093	0,362	0,34777
21,43	7,168	0,37413	0,3599
21,6	7,116	0,37386	0,35963
21,77	7,06	0,3736	0,35937
21,95	7,004	0,37334	0,35911
22,12	6,9481	0,37307	0,35884
22,29	6,8998	0,37338	0,35915
22,46	6,858	0,3741	0,35987
22,63	7,1075	0,38325	0,36902
22,8	7,1083	0,38564	0,37141
22,97	7,117	0,38842	0,37419
23,15	7,1547	0,39204	0,37781
23,32	7,1757	0,39534	0,38111
23,49	7,1966	0,39863	0,3844
23,66	7,2176	0,40081	0,38658
23,83	7,2636	0,40361	0,38938
24	7,3477	0,40834	0,39411
24,17	7,3761	0,41146	0,39723
24,35	7,4541	0,41671	0,40248
24,52	7,4452	0,41839	0,40416
24,69	7,3864	0,41866	0,40443
24,86	7,3348	0,4196	0,40537
25,03	7,4497	0,42582	0,41159
25,2	7,4739	0,42797	0,41374
25,38	7,4287	0,42854	0,41431
25,55	7,433	0,43167	0,41744
25,72	7,4694	0,43389	0,41966
25,89	7,517	0,43677	0,42254
26,06	7,5492	0,44141	0,42718
26,23	7,5729	0,44396	0,42973
26,4	7,5736	0,44651	0,43228
26,58	7,5743	0,44869	0,43446
26,75	7,6294	0,45333	0,4391
26,92	7,6885	0,45806	0,44383
27,09	7,7074	0,4608	0,44657
27,26	7,7038	0,46248	0,44825
27,43	7,7252	0,46604	0,45181
27,6	7,7392	0,46847	0,45424
27,78	7,736	0,4703	0,45607
27,95	7,7706	0,47434	0,46011
28,12	7,7544	0,47604	0,46181
28,29	7,7208	0,4772	0,46297
28,46	7,7251	0,47947	0,46524
28,63	7,7509	0,48225	0,46802
28,8	7,8312	0,48603	0,4718
28,98	7,8455	0,48977	0,47554
29,15	7,8449	0,49212	0,47789
29,32	7,8442	0,49447	0,48024
29,49	7,8905	0,49836	0,48413
29,66	7,9479	0,50107	0,48684
29,83	8,0532	0,50751	0,49328
30	8,1755	0,51463	0,5004
30,18	8,0879	0,51467	0,50044
30,35	8,0002	0,5147	0,50047
30,52	7,9126	0,51473	0,5005
30,69	7,8735	0,51476	0,50053
30,86	7,8398	0,51479	0,50056
31,03	8,0397	0,52362	0,50939
31,2	8,0263	0,52652	0,51229
31,38	8,0129	0,52779	0,51356
31,55	8,0208	0,53074	0,51651
31,72	8,1052	0,53531	0,52108
31,89	8,103	0,53767	0,52344
32,06	8,1007	0,53958	0,52535
32,23	8,1663	0,54408	0,52985
32,4	8,1906	0,54713	0,5329
32,58	8,2149	0,55027	0,53604
32,75	8,361	0,5578	0,54357
32,92	8,377	0,56173	0,5475
33,09	8,2981	0,56179	0,54756
33,26	8,2193	0,56184	0,54761
33,43	8,1416	0,56189	0,54766
33,6	8,1199	0,56194	0,54771
33,78	8,331	0,57181	0,55758
33,95	8,2926	0,57298	0,55875
34,12	8,2396	0,57396	0,55973
34,29	8,2509	0,57624	0,56201
34,46	8,2682	0,57937	0,56514
34,63	8,3326	0,58404	0,56981
34,8	8,3406	0,58705	0,57282
34,98	8,3487	0,59006	0,57583
35,15	8,3567	0,59306	0,57883
35,32	8,3648	0,59607	0,58184
35,49	8,3728	0,59917	0,58494
35,66	8,3809	0,60227	0,58804
35,83	8,5512	0,61052	0,59629
36,01	8,4626	0,61054	0,59631
36,18	8,374	0,61056	0,59633
36,35	8,2854	0,61058	0,59635
36,52	8,2642	0,61178	0,59755
36,69	8,4598	0,62014	0,60591
36,86	8,4021	0,62079	0,60656
37,03	8,3469	0,62265	0,60842
37,21	8,3307	0,62481	0,61058
37,38	8,3471	0,62898	0,61475
37,55	8,3791	0,63193	0,6177
37,72	8,41	0,63546	0,62123
37,89	8,4141	0,63854	0,62431
38,06	8,408	0,64121	0,62698
38,23	8,402	0,64388	0,62965
38,41	8,5265	0,651	0,63677
38,58	8,5383	0,65656	0,64233
38,75	8,428	0,65662	0,64239
38,92	8,3178	0,65667	0,64244
39,09	8,243	0,65673	0,6425
39,26	8,193	0,65679	0,64256
39,43	8,2593	0,66142	0,64719
39,61	8,4121	0,66852	0,65429
39,78	8,3338	0,66916	0,65493
39,95	8,2764	0,67173	0,6575
40,12	8,2741	0,67378	0,65955
40,29	8,2852	0,67804	0,66381
40,46	8,3012	0,68073	0,6665
40,63	8,272	0,68283	0,6686
40,81	8,2913	0,68713	0,6729
40,98	8,2885	0,69013	0,6759
41,15	8,2827	0,69313	0,6789
41,32	8,2935	0,69701	0,68278
41,49	8,3614	0,70323	0,689
41,66	8,2616	0,70329	0,68906
41,83	8,1618	0,70336	0,68913
42,01	8,088	0,70412	0,68989
42,18	8,2025	0,70971	0,69548
42,35	8,2574	0,71457	0,70034
42,52	8,1632	0,71522	0,70099
42,69	8,0694	0,71683	0,7026
42,86	8,0453	0,72027	0,70604
43,03	8,0212	0,72282	0,70859
43,21	7,9962	0,72691	0,71268
43,38	7,9705	0,72902	0,71479
43,55	7,9983	0,73158	0,71735
43,72	7,9941	0,73523	0,721
43,89	7,9899	0,7382	0,72397
44,06	7,9856	0,74116	0,72693
44,23	7,9814	0,74413	0,7299
44,41	8,1828	0,75416	0,73993
44,58	8,0536	0,75429	0,74006
44,75	7,9244	0,75441	0,74018
44,92	7,8565	0,75453	0,7403
45,09	7,8011	0,75466	0,74043
45,26	7,88	0,75893	0,7447
45,43	7,9546	0,76417	0,74994
45,61	7,8799	0,76537	0,75114
45,78	7,8641	0,768	0,75377
45,95	7,8603	0,7709	0,75667
46,12	7,9069	0,77611	0,76188
46,29	7,9121	0,77816	0,76393
46,46	7,8999	0,78138	0,76715
46,64	7,8876	0,78404	0,76981
46,81	7,8754	0,78651	0,77228
46,98	7,9384	0,79362	0,77939
47,15	7,9803	0,79899	0,78476
47,32	7,8849	0,79893	0,7847
47,49	7,7894	0,79888	0,78465
47,66	7,7026	0,79883	0,7846
47,84	7,7801	0,80356	0,78933
48,01	7,823	0,80719	0,79296
48,18	7,8615	0,81165	0,79742
48,35	7,7456	0,81205	0,79782
48,52	7,7205	0,81456	0,80033
48,69	7,7308	0,81716	0,80293
48,86	7,7331	0,81951	0,80528
49,04	7,7722	0,82386	0,80963
49,21	7,7599	0,82648	0,81225
49,38	7,7323	0,82857	0,81434
49,55	7,7192	0,83248	0,81825
49,72	7,7199	0,8365	0,82227
49,89	7,7836	0,84182	0,82759
50,06	7,8751	0,84891	0,83468
50,24	7,7311	0,84894	0,83471
50,41	7,6184	0,84897	0,83474
50,58	7,5577	0,849	0,83477
50,75	7,4971	0,84903	0,8348
50,92	7,4472	0,84971	0,83548
51,09	7,6724	0,86005	0,84582
51,26	7,5942	0,86054	0,84631
51,44	7,5388	0,86309	0,84886
51,61	7,5269	0,86525	0,85102
51,78	7,5466	0,86971	0,85548
51,95	7,5478	0,87151	0,85728
52,12	7,5351	0,87576	0,86153
52,29	7,5241	0,87882	0,86459
52,46	7,5132	0,88187	0,86764
52,64	7,5022	0,88489	0,87066
52,81	7,5685	0,88886	0,87463
52,98	7,5925	0,89381	0,87958
53,15	7,4829	0,89403	0,8798
53,32	7,3737	0,89425	0,88002
53,49	7,4028	0,8981	0,88387
53,66	7,4422	0,90109	0,88686
53,84	7,4827	0,90646	0,89223
54,01	7,4197	0,90668	0,89245
54,18	7,3567	0,90767	0,89344
54,35	7,3391	0,91054	0,89631
54,52	7,3331	0,91305	0,89882
54,69	7,3506	0,91852	0,90429
54,86	7,3421	0,92112	0,90689
55,04	7,3143	0,92372	0,90949
55,21	7,2864	0,926	0,91177
55,38	7,3395	0,93039	0,91616
55,55	7,3845	0,93622	0,92199
55,72	7,4388	0,94316	0,92893
55,89	7,3182	0,9432	0,92897
56,07	7,1975	0,94325	0,92902
56,24	7,1413	0,94329	0,92906
56,41	7,0912	0,94333	0,9291
56,58	7,0411	0,9439	0,92967
56,75	7,2057	0,95408	0,93985
56,92	7,195	0,95471	0,94048
57,09	7,1718	0,95727	0,94304
57,27	7,1486	0,95961	0,94538
57,44	7,1555	0,96297	0,94874
57,61	7,1342	0,9672	0,95297
57,78	7,1105	0,96954	0,95531
57,95	7,0869	0,972	0,95777
58,12	7,0633	0,97448	0,96025
58,29	7,1633	0,98091	0,96668
58,47	7,1616	0,98438	0,97015
58,64	7,0709	0,98477	0,97054
58,81	6,9802	0,98516	0,97093
58,98	7,1389	0,99421	0,97998
59,15	7,0488	0,99465	0,98042
59,32	6,9587	0,99465	0,98042
59,49	6,9464	0,99804	0,98381
59,67	6,9964	1,0012	0,98701
59,84	6,9538	1,0032	0,98894
60,01	6,945	1,005	0,99078
60,18	6,9391	1,0083	0,99406
60,35	6,9525	1,0134	0,99913
60,52	6,9367	1,016	1,0017
60,69	6,9135	1,0181	1,0039
60,87	6,8903	1,0198	1,0056
61,04	6,8962	1,0247	1,0105
61,21	6,9398	1,0293	1,015
61,38	6,8967	1,0333	1,0191
61,55	6,8361	1,0347	1,0205
61,72	6,7754	1,036	1,0218
61,89	6,8087	1,039	1,0248
62,07	6,8083	1,0423	1,0281
62,24	6,8168	1,0462	1,0319
62,41	6,7577	1,0462	1,032
62,58	6,7199	1,0481	1,0339
62,75	6,7124	1,051	1,0367
62,92	6,7011	1,0531	1,0389
63,09	6,7336	1,0582	1,0439
63,27	6,716	1,061	1,0468
63,44	6,6967	1,0638	1,0496
63,61	6,6774	1,0666	1,0524
63,78	6,6581	1,0694	1,0552
63,95	6,6474	1,0723	1,0581
64,12	6,8205	1,0822	1,068
64,29	6,7442	1,0838	1,0696
64,47	6,6356	1,0839	1,0697
64,64	6,5295	1,084	1,0698
64,81	6,4759	1,0841	1,0698
64,98	6,4831	1,0874	1,0732
65,15	6,5846	1,0944	1,0802
65,32	6,5696	1,0957	1,0815
65,49	6,5132	1,0973	1,0831
65,67	6,5006	1,0994	1,0851
65,84	6,4879	1,1021	1,0879
66,01	6,5257	1,1066	1,0924
66,18	6,4951	1,1096	1,0953
66,35	6,4644	1,1118	1,0976
66,52	6,4795	1,1146	1,1004
66,7	6,4817	1,1189	1,1047
66,87	6,4838	1,1225	1,1083
67,04	6,6572	1,1333	1,1191
67,21	6,5755	1,1353	1,1211
67,38	6,4569	1,1353	1,1211
67,55	6,3407	1,1354	1,1211
67,72	6,2959	1,1354	1,1212
67,9	6,2512	1,1354	1,1212
68,07	6,2064	1,1354	1,1212
68,24	6,3908	1,1449	1,1307
68,41	6,3442	1,1456	1,1314
68,58	6,2975	1,1481	1,1339
68,75	6,2894	1,1519	1,1377
68,92	6,2905	1,1539	1,1397
69,1	6,3196	1,1581	1,1439
69,27	6,3125	1,1611	1,1469
69,44	6,3054	1,1641	1,1499
69,61	6,2983	1,1671	1,1529
69,78	6,2912	1,1704	1,1562
69,95	6,3635	1,177	1,1628
70,12	6,2819	1,1779	1,1637
70,3	6,2003	1,178	1,1638
70,47	6,2522	1,1835	1,1692
70,64	6,238	1,1847	1,1705
70,81	6,2029	1,1858	1,1715
70,98	6,2668	1,1917	1,1774
71,15	6,2181	1,1932	1,179
71,32	6,1695	1,1943	1,1801
71,5	6,154	1,1964	1,1822
71,67	6,1582	1,2	1,1858
71,84	6,1763	1,2041	1,1899
72,01	6,1705	1,2058	1,1916
72,18	6,1651	1,2096	1,1953
72,35	6,1675	1,213	1,1987
72,52	6,1699	1,2161	1,2019
72,7	6,1746	1,2193	1,2051
72,87	6,3455	1,2301	1,2159
73,04	6,2518	1,2302	1,2159
73,21	6,1581	1,2302	1,2159
73,38	6,0789	1,2302	1,216
73,55	6,0397	1,2302	1,216
73,72	6,0005	1,2302	1,216
73,9	6,1464	1,2398	1,2255
74,07	6,1428	1,241	1,2267
74,24	6,1005	1,2434	1,2292
74,41	6,106	1,245	1,2308
74,58	6,1035	1,2494	1,2352
74,75	6,0874	1,2526	1,2384
74,92	6,0754	1,2539	1,2397
75,1	6,1295	1,2585	1,2443
75,27	6,1377	1,2616	1,2473
75,44	6,1458	1,2647	1,2504
75,61	6,1539	1,2678	1,2536
75,78	6,257	1,2762	1,262
75,95	6,1723	1,2764	1,2621
76,13	6,0876	1,2765	1,2622
76,3	6,0162	1,2766	1,2623
76,47	5,9875	1,2771	1,2628
76,64	6,1241	1,2857	1,2715
76,81	6,1257	1,2878	1,2735
76,98	6,0617	1,2882	1,274
77,15	6,057	1,2922	1,278
77,33	6,0753	1,2937	1,2795
77,5	6,0873	1,2986	1,2844
77,67	6,0905	1,3012	1,287
77,84	6,0758	1,303	1,2888
78,01	6,079	1,3063	1,2921
78,18	6,0899	1,31	1,2958
78,35	6,1009	1,3133	1,2991
78,53	6,112	1,3165	1,3023
78,7	6,2049	1,3242	1,31
78,87	6,1306	1,3243	1,3101
79,04	6,0562	1,3245	1,3102
79,21	5,9873	1,3246	1,3104
79,38	5,9909	1,3267	1,3124
79,55	6,1427	1,3339	1,3197
79,73	6,1028	1,3352	1,321
79,9	6,0629	1,3368	1,3226
80,07	6,0674	1,3399	1,3256
80,24	6,0788	1,3427	1,3285
80,41	6,0901	1,3467	1,3324
80,58	6,0955	1,3504	1,3361
80,75	6,1002	1,3529	1,3386
80,93	6,1049	1,3558	1,3415
81,1	6,1096	1,3588	1,3446
81,27	6,1143	1,3618	1,3476
81,44	6,1703	1,3667	1,3524
81,61	6,2501	1,3739	1,3597
81,78	6,1761	1,3739	1,3597
81,95	6,1021	1,374	1,3598
82,13	6,028	1,374	1,3598
82,3	6,0218	1,3741	1,3599
82,47	6,1207	1,3803	1,3661
82,64	6,1056	1,3844	1,3702
82,81	6,0725	1,3862	1,372
82,98	6,1177	1,3882	1,374
83,15	6,1203	1,3911	1,3769
83,33	6,1218	1,3951	1,3809
83,5	6,1216	1,3984	1,3841
83,67	6,1213	1,4008	1,3865
83,84	6,1892	1,4052	1,3909
84,01	6,1851	1,4074	1,3932
84,18	6,2613	1,4133	1,3991
84,35	6,3473	1,4214	1,4072
84,53	6,2449	1,4214	1,4072
84,7	6,1425	1,4214	1,4072
84,87	6,1112	1,4214	1,4071
85,04	6,0801	1,4214	1,4071
85,21	6,0491	1,4213	1,4071
85,38	6,1779	1,4296	1,4153
85,55	6,1929	1,4322	1,418
85,73	6,156	1,4346	1,4204
85,9	6,1688	1,4369	1,4227
86,07	6,1782	1,4413	1,4271
86,24	6,1805	1,4436	1,4294
86,41	6,2156	1,4461	1,4319
86,58	6,244	1,4496	1,4353
86,76	6,2506	1,4527	1,4385
86,93	6,2573	1,4558	1,4416
87,1	6,2731	1,4606	1,4464
87,27	6,3075	1,4651	1,4509
87,44	6,2745	1,4662	1,452
87,61	6,2317	1,4667	1,4525
87,78	6,2625	1,4711	1,4569
87,96	6,2864	1,4742	1,4599
88,13	6,2785	1,4763	1,4621
88,3	6,2705	1,4784	1,4642
88,47	6,2626	1,4798	1,4656
88,64	6,2547	1,4817	1,4675
88,81	6,2722	1,4858	1,4715
88,98	6,2859	1,4913	1,477
89,16	6,2945	1,4927	1,4785
89,33	6,3031	1,4951	1,4808
89,5	6,3106	1,4974	1,4832
89,67	6,3316	1,5015	1,4873
89,84	6,4314	1,5087	1,4945
90,01	6,417	1,5125	1,4983
90,18	6,3504	1,5126	1,4983
90,36	6,2839	1,5126	1,4984
90,53	6,2335	1,5127	1,4984
90,7	6,3735	1,5189	1,5047
90,87	6,3647	1,521	1,5068
91,04	6,3524	1,5253	1,511
91,21	6,3379	1,5259	1,5117
91,38	6,3392	1,5291	1,5148
91,56	6,3848	1,5315	1,5173
91,73	6,3759	1,5345	1,5203
91,9	6,3979	1,538	1,5238
92,07	6,42	1,5415	1,5273
92,24	6,434	1,5446	1,5303
92,41	6,4442	1,5476	1,5334
92,58	6,4544	1,5507	1,5365
92,76	6,4992	1,555	1,5408
92,93	6,5566	1,5601	1,5459
93,1	6,4876	1,5603	1,546
93,27	6,4226	1,5604	1,5462
93,44	6,4005	1,5616	1,5473
93,61	6,5126	1,568	1,5538
93,78	6,5094	1,571	1,5568
93,96	6,5035	1,5721	1,5579
94,13	6,4981	1,5746	1,5604
94,3	6,4927	1,5768	1,5626
94,47	6,537	1,5798	1,5656
94,64	6,6134	1,5845	1,5703
94,81	6,5644	1,5861	1,5719
94,98	6,5429	1,5894	1,5752
95,16	6,5479	1,5918	1,5776
95,33	6,5804	1,5956	1,5814
95,5	6,6919	1,6029	1,5887
95,67	6,6709	1,6049	1,5906
95,84	6,6195	1,605	1,5908
96,01	6,5681	1,6052	1,591
96,18	6,6615	1,6116	1,5974
96,36	6,6256	1,6124	1,5981
96,53	6,6974	1,6188	1,6046
96,7	6,6574	1,6191	1,6049
96,87	6,6091	1,6198	1,6056
97,04	6,6454	1,6226	1,6084
97,21	6,6368	1,6253	1,6111
97,39	6,6715	1,6289	1,6146
97,56	6,7159	1,633	1,6188
97,73	6,7207	1,636	1,6217
97,9	6,7255	1,6389	1,6247
98,07	6,7303	1,6419	1,6277
98,24	6,7347	1,6449	1,6306
98,41	6,7352	1,6474	1,6332
98,59	6,8785	1,6571	1,6428
98,76	6,8092	1,6577	1,6435
98,93	6,7399	1,6578	1,6435
99,1	6,6878	1,6578	1,6436
99,27	6,6579	1,6578	1,6436
99,44	6,7567	1,6637	1,6494
99,61	6,8094	1,6674	1,6531
99,79	6,7825	1,6687	1,6545
99,96	6,779	1,6707	1,6565
100,1	6,777	1,6733	1,6591
100,3	6,8344	1,6785	1,6643
100,5	6,8329	1,6811	1,6669
100,6	6,8316	1,6832	1,6689
100,8	6,842	1,6869	1,6727
101	6,863	1,6902	1,676
101,2	6,8956	1,6935	1,6792
101,3	7,0618	1,7048	1,6906
101,5	7,02	1,7052	1,691
101,7	6,9548	1,7053	1,691
101,8	6,8896	1,7053	1,6911
102	6,8244	1,7053	1,6911
102,2	6,7902	1,7053	1,6911
102,4	6,9143	1,7122	1,6979
102,5	6,9646	1,7161	1,7019
102,7	6,9184	1,7169	1,7027
102,9	6,9324	1,7191	1,7049
103	6,9564	1,7235	1,7093
103,2	6,9803	1,7264	1,7122
103,4	6,9968	1,7301	1,7159
103,6	7,0087	1,7331	1,7189
103,7	7,0205	1,7361	1,7219
103,9	7,0324	1,7391	1,7249
104,1	7,0442	1,7421	1,7279
104,2	7,1415	1,7489	1,7347
104,4	7,0785	1,7492	1,735
104,6	7,0155	1,7495	1,7353
104,8	7,0142	1,7521	1,7379
104,9	7,0987	1,7567	1,7425
105,1	7,0758	1,7583	1,744
105,3	7,0803	1,762	1,7478
105,4	7,083	1,7635	1,7492
105,6	7,0838	1,7656	1,7514
105,8	7,0858	1,7687	1,7545
106	7,0978	1,7715	1,7573
106,1	7,1145	1,7744	1,7602
106,3	7,1312	1,7783	1,7641
106,5	7,1479	1,7813	1,7671
106,6	7,1641	1,7843	1,7701
106,8	7,1795	1,7873	1,773
107	7,1947	1,7907	1,7765
107,2	7,3657	1,8015	1,7873
107,3	7,2937	1,8016	1,7874
107,5	7,2217	1,8017	1,7874
107,7	7,1497	1,8017	1,7875
107,8	7,0998	1,8018	1,7875
108	7,0898	1,8029	1,7886
108,2	7,2241	1,8107	1,7964
108,4	7,2357	1,8126	1,7983
108,5	7,2116	1,8151	1,8009
108,7	7,2211	1,8168	1,8026
108,9	7,2288	1,8206	1,8063
109	7,2322	1,8239	1,8097
109,2	7,2499	1,8256	1,8114
109,4	7,2901	1,83	1,8157
109,6	7,3208	1,833	1,8188
109,7	7,3361	1,8361	1,8219
109,9	7,4191	1,8447	1,8305
110,1	7,3506	1,8451	1,8308
110,2	7,2821	1,8452	1,831
110,4	7,2135	1,8454	1,8311
110,6	7,2898	1,8496	1,8354
110,8	7,359	1,8537	1,8395
110,9	7,3476	1,8562	1,842
111,1	7,3361	1,8581	1,8439
111,3	7,3247	1,8601	1,8459
111,4	7,315	1,8639	1,8497
111,6	7,3188	1,8655	1,8513
111,8	7,3578	1,8699	1,8556
112	7,3546	1,8725	1,8583
112,1	7,3228	1,8742	1,86
112,3	7,33	1,8783	1,8641
112,5	7,3534	1,8822	1,868
112,6	7,3493	1,8848	1,8705
112,8	7,3708	1,8897	1,8755
113	7,3474	1,895	1,8807
113,2	7,1938	1,8951	1,8808
113,3	7,0402	1,8951	1,8809
113,5	6,8866	1,8952	1,881
113,7	1,7495	1,9012	1,887
113,8	1,7106	1,9059	1,8917
114	1,6717	1,906	1,8918
114,2	1,6328	1,9077	1,8935
114,4	1,6066	1,9117	1,8975
114,5	1,5986	1,9141	1,8999
114,7	1,5906	1,9179	1,9036
114,9	1,5825	1,9217	1,9075
115	1,5745	1,9247	1,9104
115,2	1,5664	1,9276	1,9134
115,4	1,5584	1,9306	1,9164
115,6	1,5503	1,9335	1,9193
115,7	1,57	1,9405	1,9263
115,9	1,5509	1,9443	1,9301
116,1	1,504	1,9444	1,9301
116,2	1,4867	1,9444	1,9302
116,4	1,4695	1,9444	1,9302
116,6	1,479	1,9481	1,9339
116,8	1,5195	1,9535	1,9393
116,9	1,5218	1,9558	1,9416
117,1	1,4934	1,9579	1,9437
117,3	1,487	1,9598	1,9456
117,4	1,4806	1,9626	1,9484
117,6	1,491	1,9674	1,9532
117,8	1,474	1,9705	1,9563
118	1,4569	1,9727	1,9585
118,1	1,4398	1,9752	1,961
118,3	1,4464	1,9793	1,965
118,5	1,4509	1,9865	1,9722
118,6	1,4146	1,9866	1,9724
118,8	1,3735	1,9868	1,9726
119	1,3432	1,9886	1,9744
119,2	1,3617	1,9934	1,9792
119,3	1,3355	1,9954	1,9811
119,5	1,3509	2,0012	1,987
119,7	1,3043	2,0015	1,9872
119,8	1,2664	2,0024	1,9882
120	1,2669	2,0059	1,9917
120,2	1,2675	2,0081	1,9939
120,4	1,268	2,0129	1,9987
120,5	1,2594	2,0153	2,0011
120,7	1,2413	2,0176	2,0034
120,9	1,2272	2,0212	2,0069
121	1,2177	2,0246	2,0104
121,2	1,2083	2,0275	2,0133
121,4	1,235	2,0353	2,021
121,6	1,1942	2,0355	2,0213
121,7	1,1535	2,0357	2,0215
121,9	1,1275	2,0359	2,0217
122,1	1,1581	2,0428	2,0286
122,2	1,1472	2,0446	2,0304
122,4	1,1362	2,0471	2,0329
122,6	1,1252	2,0494	2,0352
122,8	1,1143	2,0514	2,0371
122,9	1,1033	2,0535	2,0393
123,1	1,0968	2,0572	2,043
123,3	1,0952	2,0614	2,0472
123,4	1,0937	2,0656	2,0514
123,6	1,0884	2,0679	2,0536
123,8	1,0774	2,0699	2,0557
124	1,067	2,0731	2,0588
124,1	1,067	2,0786	2,0643
124,3	1,0467	2,08	2,0658
124,5	1,0425	2,0843	2,07
124,6	1,0568	2,0885	2,0743
124,8	1,0233	2,0886	2,0743
125	0,98975	2,0886	2,0744
125,2	0,99624	2,0911	2,0769
125,3	1,0029	2,0971	2,0828
125,5	1,0029	2,0977	2,0835
125,7	1,0007	2,1004	2,0861
125,8	0,99851	2,1027	2,0885
126	0,99631	2,1066	2,0923
126,2	0,99411	2,1094	2,0952
126,4	0,99192	2,1128	2,0986
126,5	0,96722	2,1157	2,1015
126,7	0,96275	2,1187	2,1045
126,9	0,95828	2,1216	2,1074
127	0,9538	2,1255	2,1113
127,2	0,96608	2,1315	2,1172
127,4	0,92752	2,1317	2,1175
127,6	0,88895	2,132	2,1178
127,7	0,9032	2,1348	2,1206
127,9	0,91942	2,1419	2,1277
128,1	0,89615	2,142	2,1278
128,2	0,86506	2,1437	2,1294
128,4	0,85643	2,146	2,1317
128,6	0,84781	2,1477	2,1335
128,8	0,83918	2,1514	2,1372
128,9	0,84056	2,1563	2,1421
129,1	0,81324	2,1575	2,1433
129,3	0,79043	2,1603	2,1461
129,4	0,78452	2,1631	2,1488
129,6	0,77906	2,168	2,1538
129,8	0,77411	2,1721	2,1579
130	0,78666	2,1799	2,1657
130,1	0,74771	2,18	2,1657
130,3	0,70875	2,18	2,1657
130,5	0,69016	2,18	2,1657
130,6	0,68464	2,18	2,1657
130,8	0,71001	2,1886	2,1744
131	0,70818	2,1901	2,1759
131,2	0,68989	2,1914	2,1772
131,3	0,67387	2,1943	2,1801
131,5	0,66485	2,197	2,1827
131,7	0,67155	2,2022	2,188
131,8	0,66232	2,2044	2,1902
132	0,6531	2,2074	2,1931
132,2	0,64387	2,2104	2,1961
132,4	0,63464	2,2133	2,1991
132,5	0,63649	2,2163	2,2021
132,7	0,63136	2,2193	2,2051
132,9	0,66743	2,2291	2,2149
133	0,62636	2,2293	2,215
133,2	0,58529	2,2294	2,2151
133,4	0,56999	2,2295	2,2152
133,6	0,56157	2,2296	2,2154
133,7	0,55314	2,2306	2,2164
133,9	0,58662	2,2393	2,225
134,1	0,56572	2,2398	2,2256
134,2	0,5529	2,2423	2,228
134,4	0,54317	2,2453	2,2311
134,6	0,56151	2,2509	2,2367
134,8	0,5524	2,2525	2,2383
134,9	0,5433	2,2546	2,2404
135,1	0,53419	2,2572	2,2429
135,3	0,53394	2,2619	2,2476
135,4	0,53572	2,2656	2,2514
135,6	0,57768	2,2779	2,2637
135,8	0,52979	2,2778	2,2635
136	0,50484	2,2776	2,2634
136,1	0,48968	2,2775	2,2632
136,3	0,47452	2,2773	2,2631
136,5	0,45936	2,2772	2,2629
136,6	0,4665	2,2774	2,2632
136,8	0,52031	2,2882	2,274
137	0,51008	2,2887	2,2745
137,2	0,49984	2,2913	2,2771
137,3	0,48972	2,2948	2,2806
137,5	0,48712	2,2984	2,2842
137,7	0,48452	2,3005	2,2863
137,8	0,48192	2,3047	2,2904
138	0,47932	2,3077	2,2934
138,2	0,47672	2,3107	2,2964
138,4	0,47412	2,3155	2,3013
138,5	0,48567	2,3215	2,3072
138,7	0,46035	2,3215	2,3073
138,9	0,43503	2,3215	2,3073
139	0,41689	2,3216	2,3073
139,2	0,43287	2,3273	2,313
139,4	0,43545	2,3305	2,3163
139,6	0,43804	2,3329	2,3187
139,7	0,44016	2,3356	2,3214
139,9	0,44132	2,337	2,3227
140,1	0,44079	2,3399	2,3257
140,2	0,43636	2,3433	2,329
140,4	0,43032	2,3475	2,3333
140,6	0,42427	2,3491	2,3349
140,8	0,42111	2,3518	2,3376
140,9	0,42446	2,3559	2,3416
141,1	0,42869	2,359	2,3448
141,3	0,43699	2,3637	2,3494
141,4	0,4528	2,3714	2,3572
141,6	0,42125	2,3715	2,3573
141,8	0,39563	2,3715	2,3573
142	0,38988	2,3716	2,3573
142,1	0,38414	2,3716	2,3574
142,3	0,38602	2,3761	2,3619
142,5	0,41347	2,3819	2,3676
142,6	0,41139	2,3839	2,3697
142,8	0,40931	2,3859	2,3716
143	0,40722	2,3883	2,3741
143,2	0,40473	2,3925	2,3783
143,3	0,3965	2,3955	2,3813
143,5	0,38827	2,3975	2,3833
143,7	0,38573	2,4011	2,3869
143,8	0,39413	2,4046	2,3904
144	0,39608	2,4079	2,3937
144,2	0,39836	2,414	2,3997
144,4	0,39645	2,4173	2,4031
144,5	0,38085	2,4174	2,4032
144,7	0,36525	2,4175	2,4033
144,9	0,36078	2,4181	2,4038
145	0,37473	2,4265	2,4122
145,2	0,37076	2,4278	2,4136
145,4	0,36482	2,4298	2,4155
145,6	0,36477	2,4314	2,4172
145,7	0,36472	2,4352	2,421
145,9	0,35482	2,437	2,4227
146,1	0,36365	2,4415	2,4273
146,2	0,36094	2,4437	2,4295
146,4	0,35695	2,446	2,4318
146,6	0,35478	2,4495	2,4353
146,8	0,35816	2,4527	2,4385
146,9	0,36155	2,456	2,4418
147,1	0,36493	2,4604	2,4462
147,3	0,37393	2,4675	2,4532
147,4	0,34915	2,4675	2,4532
147,6	0,32438	2,4675	2,4533
147,8	0,3182	2,4675	2,4533
148	0,32615	2,4704	2,4562
148,1	0,34295	2,4774	2,4632
148,3	0,33545	2,4781	2,4639
148,5	0,32795	2,4803	2,466
148,6	0,3253	2,4828	2,4686
148,8	0,32685	2,4857	2,4715
149	0,3284	2,4905	2,4763
149,2	0,3287	2,493	2,4788
149,3	0,32775	2,4959	2,4816
149,5	0,3268	2,4988	2,4845
149,7	0,32585	2,5017	2,4875
149,8	0,32404	2,5047	2,4904
150	0,3277	2,5133	2,4991
150,2	0,32343	2,5167	2,5024
150,4	0,30359	2,5167	2,5025
150,5	0,28374	2,5167	2,5025
150,7	0,26868	2,5167	2,5025
150,9	0,26795	2,5167	2,5025
151	0,28524	2,5239	2,5097
151,2	0,29445	2,5273	2,5131
151,4	0,2802	2,5289	2,5147
151,6	0,27547	2,5312	2,5169
151,7	0,27451	2,535	2,5207
151,9	0,27355	2,5371	2,5229
152,1	0,27259	2,5412	2,527
152,3	0,27163	2,5439	2,5296
152,4	0,27067	2,5462	2,532
152,6	0,27255	2,5499	2,5357
152,8	0,27395	2,5603	2,546
152,9	0,26406	2,5603	2,5461
153,1	0,25243	2,5604	2,5462
153,3	0,24081	2,5605	2,5462
153,5	0,23797	2,5605	2,5463
153,6	0,24261	2,5666	2,5524
153,8	0,25253	2,5716	2,5574
154	0,2509	2,5726	2,5584
154,1	0,24927	2,5745	2,5603
154,3	0,24764	2,5775	2,5633
154,5	0,24696	2,58	2,5658
154,7	0,24688	2,5845	2,5703
154,8	0,24681	2,5873	2,573
155	0,24673	2,5891	2,5748
155,2	0,23131	2,5931	2,5788
155,3	0,2317	2,5959	2,5817
155,5	0,23209	2,5985	2,5843
155,7	0,24097	2,6064	2,5921
155,9	0,24595	2,6099	2,5956
156	0,23486	2,6099	2,5957
156,2	0,22377	2,61	2,5957
156,4	0,21267	2,61	2,5958
156,5	0,21909	2,613	2,5988
156,7	0,21859	2,6206	2,6064
156,9	0,2139	2,6207	2,6065
157,1	0,20932	2,6224	2,6082
157,2	0,20473	2,6247	2,6105
157,4	0,2011	2,6282	2,6139
157,6	0,20271	2,633	2,6188
157,7	0,20432	2,6354	2,6212
157,9	0,20507	2,6385	2,6243
158,1	0,20247	2,6406	2,6264
158,3	0,19987	2,6438	2,6296
158,4	0,20557	2,6501	2,6359
158,6	0,21327	2,6579	2,6437
158,8	0,18268	2,658	2,6437
158,9	0,17256	2,658	2,6438
159,1	0,16591	2,6581	2,6438
159,3	0,15926	2,6581	2,6439
159,5	0,15653	2,6618	2,6476
159,6	0,17719	2,6679	2,6536
159,8	0,17147	2,6688	2,6545
160	0,16576	2,6716	2,6574
160,1	0,16163	2,6746	2,6604
160,3	0,16234	2,6774	2,6631
160,5	0,16305	2,6808	2,6665
160,7	0,16376	2,6841	2,6699
160,8	0,16448	2,6874	2,6732
161	0,16519	2,6905	2,6763
161,2	0,1659	2,6936	2,6794
161,3	0,16662	2,6968	2,6825
161,5	0,17778	2,706	2,6918
161,7	0,1718	2,7061	2,6919
161,9	0,16019	2,7062	2,6919
162	0,14857	2,7062	2,692
162,2	0,1387	2,7063	2,6921
162,4	0,14518	2,7116	2,6974
162,5	0,16265	2,7157	2,7015
162,7	0,16042	2,7178	2,7036
162,9	0,15819	2,7193	2,7051
163,1	0,15596	2,7222	2,7079
163,2	0,15224	2,7285	2,7143
163,4	0,1475	2,7298	2,7156
163,6	0,14276	2,7316	2,7173
163,7	0,13854	2,735	2,7208
163,9	0,14204	2,7394	2,7251
164,1	0,14555	2,7453	2,7311
164,3	0,14594	2,7462	2,732
164,4	0,14442	2,7497	2,7354
164,6	0,13659	2,7529	2,7386
164,8	0,12876	2,7532	2,7389
164,9	0,12093	2,7549	2,7406
165,1	0,12926	2,7613	2,7471
165,3	0,12499	2,7614	2,7472
165,5	0,11963	2,7629	2,7487
165,6	0,11597	2,7655	2,7513
165,8	0,11308	2,7678	2,7535
166	0,11034	2,7735	2,7593
166,1	0,10871	2,7759	2,7616
166,3	0,10708	2,7788	2,7646
166,5	0,10545	2,7817	2,7675
166,7	0,10382	2,7846	2,7704
166,8	0,10219	2,7875	2,7733
167	0,10056	2,7905	2,7762
167,2	0,12668	2,8014	2,7872
167,3	0,11507	2,8014	2,7872
167,5	0,10347	2,8015	2,7872
167,7	0,09305	2,8015	2,7873
167,9	0,089712	2,8016	2,7873
168	0,086374	2,8016	2,7874
168,2	0,091367	2,8107	2,7965
168,4	0,095859	2,8114	2,7972
168,5	0,095609	2,8139	2,7997
168,7	0,095358	2,8167	2,8024
168,9	0,095108	2,821	2,8068
169,1	0,094858	2,8245	2,8103
169,2	0,092397	2,8264	2,8122
169,4	0,088711	2,8302	2,816
169,6	0,091656	2,8335	2,8192
169,7	0,0946	2,8367	2,8225
169,9	0,10899	2,847	2,8328
170,1	0,10948	2,8483	2,8341
170,3	0,10101	2,8483	2,8341
170,4	0,092529	2,8484	2,8341
170,6	0,084052	2,8484	2,8342
170,8	0,075575	2,8484	2,8342
170,9	0,077039	2,8496	2,8354
171,1	0,090498	2,8596	2,8454
171,3	0,091245	2,86	2,8458
171,5	0,091992	2,8627	2,8484
171,6	0,09274	2,8669	2,8526
171,8	0,093487	2,8698	2,8556
172	0,094235	2,872	2,8578
172,1	0,095459	2,8758	2,8616
172,3	0,096956	2,8788	2,8646
172,5	0,098453	2,8819	2,8677
172,7	0,09995	2,8853	2,8711
172,8	0,09983	2,8925	2,8783
173	0,099041	2,8925	2,8783
173,2	0,098683	2,8926	2,8783
173,3	0,099038	2,897	2,8827
173,5	0,097387	2,8997	2,8855
173,7	0,095517	2,9018	2,8876
173,9	0,093648	2,9051	2,8909
174	0,098639	2,9067	2,8925
174,2	0,10009	2,9086	2,8944
174,4	0,098573	2,9117	2,8974
174,5	0,1043	2,9154	2,9011
174,7	0,11644	2,9179	2,9037
174,9	0,11506	2,9209	2,9067
175,1	0,11369	2,9244	2,9102
175,2	0,11232	2,9276	2,9134
175,4	0,11095	2,9308	2,9165
175,6	0,10921	2,9348	2,9206
175,7	0,10549	2,9403	2,9261
175,9	0,10178	2,9412	2,927
176,1	0,098061	2,9413	2,9271
176,3	0,096377	2,9433	2,929
176,4	0,1054	2,9473	2,9331
176,6	0,1129	2,9507	2,9365
176,8	0,11449	2,9533	2,9391
176,9	0,11432	2,9555	2,9413
177,1	0,11414	2,958	2,9438
177,3	0,11397	2,96	2,9458
177,5	0,11387	2,9633	2,949
177,6	0,11434	2,9666	2,9524
177,8	0,11481	2,9689	2,9547
178	0,11528	2,9727	2,9585
178,1	0,11575	2,9762	2,962
178,3	0,11622	2,9792	2,965
178,5	0,11547	2,9845	2,9702
178,7	0,1137	2,9863	2,9721
178,8	0,11193	2,9882	2,9739
179	0,11016	2,991	2,9768
179,2	0,10839	2,9939	2,9796
179,3	0,10661	2,9955	2,9813
179,5	0,10485	3,0018	2,9876
179,7	0,10317	3,0019	2,9877
179,9	0,10149	3,0024	2,9881
180	0,099819	3,0064	2,9922
180,2	0,098143	3,0085	2,9943
180,4	0,11312	3,0132	2,9989
180,5	0,11073	3,0152	3,0009
180,7	0,10833	3,0171	3,0029
180,9	0,10594	3,0214	3,0072
181,1	0,10398	3,0246	3,0104
181,2	0,10301	3,0278	3,0136
181,4	0,10203	3,0338	3,0196
181,6	0,11317	3,0364	3,0222
181,7	0,10351	3,0367	3,0225
181,9	0,093858	3,037	3,0227
182,1	0,09711	3,0429	3,0287
182,3	0,10024	3,0455	3,0313
182,4	0,093663	3,0477	3,0334
182,6	0,087087	3,0498	3,0356
182,8	0,080512	3,0513	3,0371
182,9	0,014978	3,0543	3,0401
183,1	0,017417	3,0574	3,0432
183,3	0,019856	3,0616	3,0474
183,5	0,022295	3,065	3,0508
183,6	0,024735	3,0679	3,0537
183,8	0,027174	3,0709	3,0566
184	0,029613	3,0738	3,0596
184,1	0,032053	3,0768	3,0625
184,3	0,036991	3,0845	3,0703
184,5	0,050075	3,0869	3,0727
184,7	0,045896	3,0869	3,0727
184,8	0,041718	3,087	3,0727
185	0,037539	3,087	3,0728
185,2	0,041088	3,0915	3,0773
185,3	0,059161	3,0978	3,0836
185,5	0,06178	3,0986	3,0844
185,7	0,061284	3,1004	3,0861
185,9	0,060788	3,1026	3,0884
186	0,060292	3,1059	3,0917
186,2	0,061702	3,1094	3,0952
186,4	0,064157	3,1127	3,0984
186,5	0,066612	3,115	3,1007
186,7	0,070821	3,1196	3,1054
186,9	0,080262	3,122	3,1078
187,1	0,089703	3,1271	3,1128
187,2	0,10554	3,1308	3,1166
187,4	0,10104	3,1314	3,1171
187,6	0,096544	3,1327	3,1185
187,7	0,10582	3,1367	3,1224
187,9	0,11697	3,1402	3,126
188,1	0,12639	3,1435	3,1293
188,3	0,12517	3,1436	3,1293
188,4	0,12394	3,1454	3,1312
188,6	0,12272	3,1491	3,1349
188,8	0,12149	3,1519	3,1377
188,9	0,1268	3,1554	3,1412
189,1	0,13235	3,1583	3,144
189,3	0,13791	3,16	3,1458
189,5	0,14346	3,1646	3,1504
189,6	0,14901	3,1678	3,1535
189,8	0,15456	3,1702	3,156
190	0,17025	3,1769	3,1626
190,1	0,17952	3,1789	3,1647
190,3	0,17161	3,1792	3,165
190,5	0,16371	3,1795	3,1653
190,7	0,17314	3,1843	3,17
190,8	0,19262	3,1911	3,1769
191	0,2042	3,1913	3,177
191,2	0,20575	3,1914	3,1772
191,3	0,20729	3,1937	3,1795
191,5	0,20884	3,1965	3,1823
191,7	0,21435	3,1999	3,1857
191,9	0,23139	3,2039	3,1896
192	0,23657	3,2071	3,1929
192,2	0,24176	3,2101	3,1959
192,4	0,24694	3,2119	3,1977
192,5	0,25212	3,2161	3,2019
192,7	0,28417	3,2236	3,2094
192,9	0,28622	3,2248	3,2105
193,1	0,27782	3,2249	3,2107
193,2	0,26941	3,2251	3,2108
193,4	0,30299	3,2322	3,218
193,6	0,30602	3,2328	3,2185
193,7	0,30699	3,2343	3,22
193,9	0,32676	3,24	3,2258
194,1	0,32746	3,2403	3,2261
194,3	0,32817	3,2432	3,2289
194,4	0,33253	3,2455	3,2313
194,6	0,34301	3,2493	3,2351
194,8	0,3535	3,2534	3,2391
194,9	0,36399	3,2564	3,2421
195,1	0,37447	3,2594	3,2452
195,3	0,38496	3,2624	3,2482
195,5	0,39545	3,2655	3,2512
195,6	0,41158	3,2685	3,2542
195,8	0,4491	3,2763	3,262
196	0,44044	3,2764	3,2622
196,1	0,43178	3,2766	3,2624
196,3	0,42311	3,2768	3,2626
196,5	0,41445	3,2771	3,2628
196,7	0,47259	3,286	3,2718
196,8	0,46921	3,2866	3,2724
197	0,46661	3,2892	3,275
197,2	0,47448	3,2907	3,2765
197,3	0,48432	3,2952	3,281
197,5	0,50825	3,2994	3,2852
197,7	0,51027	3,3005	3,2863
197,9	0,51225	3,3033	3,289
198	0,51418	3,3067	3,2925
198,2	0,53019	3,3111	3,2968
198,4	0,57157	3,3161	3,3019
198,5	0,59694	3,3218	3,3075
198,7	0,5881	3,3218	3,3076
198,9	0,57926	3,3218	3,3076
199,1	0,57043	3,3218	3,3076
199,2	0,58578	3,3267	3,3125
199,4	0,62636	3,3324	3,3182
199,6	0,62861	3,3326	3,3184
199,7	0,63086	3,3341	3,3199
199,9	0,63311	3,3369	3,3227
200,1	0,63566	3,3395	3,3252
200,3	0,65401	3,3443	3,33
200,4	0,67235	3,3475	3,3333
200,6	0,68813	3,3502	3,3359
200,8	0,69628	3,3528	3,3386
200,9	0,70443	3,3554	3,3412
201,1	0,71471	3,3593	3,345
201,3	0,74282	3,3659	3,3517
201,5	0,75429	3,3665	3,3523
201,6	0,7484	3,367	3,3528
201,8	0,74825	3,3703	3,3561
202	0,76474	3,3737	3,3595
202,1	0,77682	3,3751	3,3608
202,3	0,77813	3,3806	3,3664
202,5	0,77676	3,3814	3,3672
202,7	0,78911	3,3836	3,3694
202,8	0,80548	3,3857	3,3715
203	0,82591	3,3886	3,3744
203,2	0,84635	3,393	3,3788
203,3	0,84278	3,3955	3,3812
203,5	0,84805	3,3979	3,3837
203,7	0,85609	3,4014	3,3872
203,9	0,86969	3,4051	3,3908
204	0,8833	3,4081	3,3939
204,2	0,95636	3,4172	3,403
204,4	0,95871	3,4185	3,4043
204,5	0,94157	3,4185	3,4043
204,7	0,92442	3,4185	3,4043
204,9	0,90728	3,4185	3,4043
205,1	0,92196	3,4214	3,4072
205,2	0,98336	3,4286	3,4144
205,4	0,97072	3,4297	3,4154
205,6	0,95808	3,4317	3,4174
205,7	0,97103	3,4343	3,4201
205,9	0,98611	3,438	3,4238
206,1	1,005	3,4406	3,4263
206,3	1,0247	3,4447	3,4305
206,4	1,0324	3,4477	3,4335
206,6	1,0401	3,4506	3,4364
206,8	1,0477	3,4536	3,4394
206,9	1,0554	3,4566	3,4424
207,1	1,0995	3,4642	3,45
207,3	1,0805	3,4643	3,45
207,5	1,0615	3,4643	3,4501
207,6	1,0425	3,4644	3,4502
207,8	1,0908	3,471	3,4568
208	1,0945	3,4741	3,4599
208,1	1,0982	3,4757	3,4614
208,3	1,1025	3,4775	3,4632
208,5	1,1091	3,4805	3,4663
208,7	1,1075	3,4828	3,4686
208,8	1,1232	3,4862	3,4719
209	1,1435	3,4897	3,4755
209,2	1,1506	3,4933	3,4791
209,3	1,1536	3,4957	3,4815
209,5	1,1566	3,4981	3,4839
209,7	1,1598	3,5006	3,4863
209,9	1,1473	3,5135	3,4992
210	0,87494	3,5134	3,4992
210,2	0,80301	3,5134	3,4992
210,4	0,74372	3,5135	3,4993
210,5	0,72957	3,5136	3,4993
210,7	0,71541	3,5137	3,4994
210,9	0,70938	3,5171	3,5029
211,1	0,75981	3,5264	3,5122
211,2	0,74247	3,5269	3,5127
211,4	0,72531	3,5296	3,5154
211,6	0,72551	3,531	3,5168
211,7	0,72571	3,5351	3,5209
211,9	0,72591	3,5385	3,5243
212,1	0,72741	3,5404	3,5261
212,3	0,73082	3,5441	3,5299
212,4	0,73424	3,5475	3,5332
212,6	0,73766	3,5504	3,5362
212,8	0,74238	3,5557	3,5415
212,9	0,74943	3,5618	3,5476
213,1	0,71754	3,5618	3,5476
213,3	0,69396	3,5618	3,5476
213,5	0,68634	3,5618	3,5476
213,6	0,68436	3,5651	3,5509
213,8	0,72204	3,5719	3,5577
214	0,70751	3,5729	3,5586
214,1	0,69298	3,5746	3,5604
214,3	0,68201	3,578	3,5638
214,5	0,67117	3,5802	3,566
214,7	0,67826	3,5848	3,5705
214,8	0,6653	3,5867	3,5725
215	0,65233	3,5885	3,5743
215,2	0,65367	3,5927	3,5784
215,3	0,65872	3,5959	3,5817
215,5	0,65911	3,5991	3,5849
215,7	0,65891	3,6047	3,5905
215,9	0,64777	3,6071	3,5928
216	0,63663	3,6084	3,5942
216,2	0,62549	3,6105	3,5963
216,4	0,62482	3,6132	3,5989
216,5	0,6302	3,6159	3,6017
216,7	0,64598	3,6208	3,6066
216,9	0,62442	3,6209	3,6067
217,1	0,60584	3,6227	3,6085
217,2	0,61405	3,6259	3,6117
217,4	0,62225	3,6286	3,6143
217,6	0,63046	3,6327	3,6185
217,7	0,63866	3,6362	3,622
217,9	0,64039	3,639	3,6248
218,1	0,63838	3,642	3,6277
218,3	0,63638	3,6454	3,6312
218,4	0,6331	3,6481	3,6339
218,6	0,62459	3,6522	3,638
218,8	0,65732	3,6591	3,6449
218,9	0,63449	3,6592	3,645
219,1	0,61166	3,6593	3,6451
219,3	0,58883	3,6594	3,6452
219,5	0,58407	3,6602	3,6459
219,6	0,60934	3,6694	3,6552
219,8	0,56478	3,67	3,6557
220	-0,68263	3,6723	3,6581
220,1	-0,68209	3,6742	3,6599
220,3	-0,68156	3,6767	3,6624
220,5	-0,68102	3,6814	3,6671
220,7	-0,68049	3,6847	3,6705
220,8	-0,67995	3,6866	3,6723
221	-0,67942	3,6907	3,6764
221,2	-0,67888	3,6939	3,6797
221,3	-0,67834	3,6998	3,6856
221,5	-0,67781	3,7056	3,6914
221,7	-0,67727	3,7056	3,6914
221,9	-0,67674	3,7057	3,6915
222	-0,6762	3,7057	3,6915
222,2	-0,67567	3,7058	3,6915
222,4	-0,67513	3,7138	3,6996
222,5	-0,67508	3,7165	3,7023
222,7	-0,67615	3,7172	3,703
222,9	-0,67721	3,7205	3,7062
223,1	-0,67828	3,7232	3,709
223,2	-0,67934	3,7274	3,7132
223,4	-0,68041	3,729	3,7148
223,6	-0,68042	3,7336	3,7194
223,7	-0,67609	3,7366	3,7223
223,9	-0,67407	3,7395	3,7253
224,1	-0,67222	3,7424	3,7282
224,3	-0,67036	3,7458	3,7316
224,4	-0,66953	3,7509	3,7367
224,6	-0,66975	3,7511	3,7369
224,8	-0,67032	3,7513	3,7371
224,9	-0,67123	3,7557	3,7414
225,1	-0,67214	3,7618	3,7475
225,3	-0,67305	3,7625	3,7482
225,5	-0,67396	3,7638	3,7496
225,6	-0,67487	3,7656	3,7514
225,8	-0,67578	3,7685	3,7543
226	-0,67329	3,7716	3,7573
226,1	-0,67026	3,776	3,7617
226,3	-0,66723	3,7788	3,7645
226,5	-0,67951	3,781	3,7668
226,7	-0,67919	3,7834	3,7691
226,8	-0,67888	3,7876	3,7734
227	-0,67857	3,7908	3,7766
227,2	-0,67825	3,8046	3,7904
227,3	-0,67794	3,8041	3,7898
227,5	-0,67762	3,8035	3,7893
227,7	-0,67731	3,8029	3,7887
227,9	-0,67582	3,8024	3,7882
228	-0,67383	3,8017	3,7875
228,2	-0,67184	3,8027	3,7885
228,4	-0,66985	3,8131	3,7989
228,5	-0,66943	3,8142	3,8
228,7	-0,66934	3,8173	3,8031
228,9	-0,66925	3,8204	3,8061
229,1	-0,66915	3,8245	3,8103
229,2	-0,66906	3,827	3,8128
229,4	-0,66897	3,8295	3,8153
229,6	-0,66889	3,8334	3,8192
229,7	-0,67008	3,8368	3,8226
229,9	-0,67126	3,8454	3,8311
230,1	-0,67245	3,8454	3,8312
230,3	-0,67363	3,8454	3,8312
230,4	-0,67482	3,8454	3,8312
230,6	-0,676	3,8478	3,8336
230,8	-0,67697	3,8535	3,8393
230,9	-0,67733	3,8577	3,8435
231,1	-0,67769	3,8582	3,844
231,3	-0,67805	3,8608	3,8465
231,5	-0,67832	3,8624	3,8482
231,6	-0,67819	3,8667	3,8525
231,8	-0,67805	3,8704	3,8561
232	-0,67824	3,8731	3,8589
232,1	-0,67904	3,8758	3,8616
232,3	-0,67984	3,8776	3,8633
232,5	-0,68064	3,8821	3,8679
232,7	-0,68143	3,8874	3,8732
232,8	-0,68223	3,8885	3,8743
233	-0,66841	3,8986	3,8844
233,2	-0,669	3,8986	3,8843
233,3	-0,66958	3,8985	3,8843
233,5	-0,67016	3,8984	3,8842
233,7	-0,67074	3,8983	3,8841
233,9	-0,67132	3,9054	3,8912
234	-0,6719	3,9067	3,8924
234,2	-0,67226	3,9084	3,8941
234,4	-0,67072	3,9107	3,8964
234,5	-0,66919	3,9159	3,9017
234,7	-0,66884	3,9187	3,9045
234,9	-0,66881	3,9215	3,9073
235,1	-0,66878	3,9241	3,9099
235,2	-0,66875	3,927	3,9128
235,4	-0,66872	3,9312	3,917
235,6	-0,66869	3,9379	3,9237
235,7	-0,66867	3,9381	3,9239
235,9	-0,66864	3,9384	3,9241
236,1	-0,66861	3,9415	3,9273
236,3	-0,66858	3,9448	3,9306
236,4	-0,66855	3,9473	3,9331
236,6	-0,66852	3,9513	3,9371
236,8	-0,66842	3,9529	3,9387
236,9	-0,66822	3,9547	3,9405
237,1	-0,66802	3,9571	3,9428
237,3	-0,66781	3,9598	3,9456
237,5	-0,66761	3,9638	3,9496
237,6	-0,66741	3,9668	3,9526
237,8	-0,66721	3,9688	3,9546
238	-0,66581	3,9731	3,9589
238,1	-0,66437	3,9762	3,9619
238,3	-0,66293	3,9792	3,965
238,5	-0,66149	3,9883	3,9741
238,7	-0,67592	3,9906	3,9764
238,8	-0,67589	3,9907	3,9765
239	-0,67571	3,9908	3,9765
239,2	-0,67378	3,9908	3,9766
239,3	-0,67185	3,9909	3,9767
239,5	-0,66992	4,0014	3,9871
239,7	-0,66799	4,0016	3,9874
239,9	-0,66703	4,0031	3,9888
240	-0,66685	4,0057	3,9915
240,2	-0,66667	4,0088	3,9945
240,4	-0,66648	4,013	3,9988
240,5	-0,6663	4,016	4,0017
240,7	-0,66612	4,0189	4,0047
240,9	-0,66593	4,0219	4,0077
241,1	-0,66575	4,0249	4,0107
241,2	-0,66557	4,0277	4,0135
241,4	-0,66538	4,036	4,0218
241,6	-0,6652	4,0382	4,024
241,7	-0,66502	4,0382	4,024
241,9	-0,66483	4,0383	4,024
242,1	-0,68136	4,0381	4,0239
242,3	-0,67893	4,0443	4,0301
242,4	-0,67736	4,0489	4,0347
242,6	-0,67668	4,0492	4,035
242,8	-0,67601	4,0524	4,0382
242,9	-0,67533	4,0538	4,0396
243,1	-0,67465	4,0581	4,0439
243,3	-0,67523	4,0618	4,0476
243,5	-0,67713	4,0642	4,05
243,6	-0,67904	4,0668	4,0526
243,8	-0,68094	4,0695	4,0552
244	-0,68285	4,0725	4,0583
244,1	-0,68405	4,0848	4,0706
244,3	-0,68044	4,0849	4,0706
244,5	-0,67689	4,0849	4,0707
244,7	-0,677	4,0849	4,0707
244,8	-0,67712	4,0849	4,0707
245	-0,67724	4,085	4,0707
245,2	-0,67735	4,092	4,0777
245,3	-0,67747	4,0977	4,0835
245,5	-0,67759	4,0983	4,084
245,7	-0,67073	4,101	4,0868
245,9	-0,67087	4,1026	4,0884
246	-0,671	4,1071	4,0929
246,2	-0,67113	4,1099	4,0957
246,4	-0,67127	4,1121	4,0979
246,5	-0,6714	4,116	4,1018
246,7	-0,67154	4,1191	4,1049
246,9	-0,67167	4,1222	4,108
247,1	-0,6718	4,1264	4,1122
247,2	-0,67194	4,1316	4,1174
247,4	-0,67207	4,1318	4,1176
247,6	-0,56313	4,1321	4,1178
247,7	-0,60565	4,1348	4,1206
247,9	-0,62274	4,139	4,1248
248,1	-0,65706	4,1439	4,1297
248,3	-0,76189	4,1442	4,13
248,4	-0,73552	4,1466	4,1323
248,6	-0,70915	4,1492	4,135
248,8	-0,68101	4,152	4,1378
248,9	-0,64748	4,1562	4,1419
249,1	-0,64904	4,1579	4,1437
249,3	-0,64482	4,1611	4,1468
249,5	-0,85292	4,1641	4,1499
249,6	-0,77852	4,1666	4,1523
249,8	-0,74124	4,1746	4,1604
250	-0,87769	4,175	4,1608
250,1	-0,82906	4,1754	4,1611
250,3	-0,78043	4,1823	4,1681
250,5	-0,73179	4,183	4,1688
250,7	-0,68316	4,1837	4,1694
250,8	-0,63453	4,1899	4,1757
251	-0,59657	4,1916	4,1774
251,2	-0,59227	4,192	4,1778
251,3	-0,62008	4,1948	4,1806
251,5	-0,55673	4,1973	4,1831
251,7	-0,6752	4,1997	4,1855
251,9	-0,71143	4,2041	4,1899
252	-0,71146	4,2069	4,1926
252,2	-0,7115	4,2097	4,1954
252,4	-0,71153	4,2124	4,1981
252,5	-0,71157	4,216	4,2018
252,7	-0,71161	4,2215	4,2072
252,9	-0,71164	4,2237	4,2095
253,1	-0,71168	4,227	4,2127
253,2	-0,71171	4,2293	4,215
253,4	-0,71175	4,2301	4,2158
253,6	-0,71179	4,2331	4,2189
253,8	-0,71182	4,2362	4,222
253,9	-0,71186	4,2393	4,2251
254,1	-0,71189	4,2417	4,2275
254,3	-0,71193	4,2441	4,2299
254,4	-0,66292	4,2458	4,2316
254,6	-0,66421	4,2492	4,2349
254,8	-0,6655	4,2525	4,2383
255	-0,66679	4,2555	4,2412
255,1	-0,66809	4,2579	4,2437
255,3	-0,66938	4,2619	4,2477
255,3	-0,66973