File: Tests de traction/Fichiers source/04_07_2016/Sample_9_250N.txt
Time (s)	Load (N)	Machine Extension (mm)	Extension from Preload (mm)
0
0,2636	0,0079154	0,00011811	-0,073393
0,5273	0,35588	0,072616	-0,00089508
0,7909	0,32682	0,071117	-0,0023949
1,055	0,35528	0,073998	0,00048633
1,318	0,38374	0,080224	0,0067129
1,582	0,42297	0,086363	0,012851
1,845	0,46928	0,090684	0,017173
2,109	0,5156	0,094573	0,021061
2,373	0,65514	0,10236	0,028853
2,636	0,67797	0,10498	0,031464
2,9	0,82044	0,11158	0,038064
3,164	0,81947	0,11161	0,038094
3,427	0,92001	0,11681	0,043295
3,691	1,0169	0,12146	0,047952
3,954	1,068	0,12409	0,050577
4,218	1,1676	0,12947	0,05596
4,482	1,3316	0,13415	0,060637
4,745	1,417	0,13809	0,064583
5,009	1,5643	0,14338	0,069864
5,273	2,0307	0,15674	0,083228
5,536	2,0025	0,15681	0,083297
5,8	1,9744	0,15688	0,083366
6,063	1,9462	0,15695	0,083435
6,327	2,2601	0,16544	0,091931
6,591	2,3393	0,16959	0,09608
6,854	2,4341	0,17381	0,1003
7,118	2,6032	0,17876	0,10525
7,382	2,7589	0,18278	0,10927
7,645	2,8374	0,18665	0,11314
7,909	3,0153	0,19216	0,11865
8,173	3,2806	0,19981	0,1263
8,436	3,4401	0,20497	0,13146
8,7	3,403	0,20506	0,13155
8,963	3,3658	0,20516	0,13165
9,227	3,6507	0,21443	0,14092
9,491	3,731	0,21748	0,14397
9,754	3,8109	0,22135	0,14784
10,02	3,9664	0,22645	0,15294
10,28	4,064	0,23056	0,15705
10,55	4,1307	0,2364	0,16288
10,81	4,2504	0,24098	0,16747
11,07	4,4601	0,24997	0,17645
11,34	4,5243	0,25421	0,1807
11,6	4,4491	0,25427	0,18076
11,86	4,3739	0,25434	0,18083
12,13	4,5291	0,26037	0,18686
12,39	4,6198	0,26607	0,19255
12,65	4,6125	0,26961	0,1961
12,92	4,6903	0,2753	0,20179
13,18	4,723	0,27818	0,20467
13,45	4,8518	0,28425	0,21074
13,71	4,9319	0,28901	0,2155
13,97	5,0519	0,29478	0,22127
14,24	5,2536	0,30223	0,22872
14,5	5,1939	0,30233	0,22882
14,76	5,1342	0,30244	0,22893
15,03	5,4133	0,31147	0,23796
15,29	5,4359	0,31334	0,23983
15,55	5,494	0,31732	0,24381
15,82	5,6618	0,32365	0,25014
16,08	5,7429	0,32749	0,25398
16,35	5,9212	0,33349	0,25998
16,61	5,9944	0,33741	0,2639
16,87	6,1531	0,34373	0,27022
17,14	6,1204	0,34433	0,27082
17,4	6,3004	0,35088	0,27737
17,66	6,3463	0,35456	0,28105
17,93	6,4219	0,35875	0,28523
18,19	6,4766	0,36191	0,28839
18,45	6,5615	0,36615	0,29264
18,72	6,676	0,3716	0,29809
18,98	6,7713	0,37593	0,30242
19,25	6,882	0,38116	0,30765
19,51	6,9802	0,38579	0,31227
19,77	7,1259	0,39319	0,31968
20,04	7,0747	0,39351	0,31999
20,3	7,2306	0,39977	0,32626
20,56	7,2508	0,40197	0,32846
20,83	7,3409	0,40723	0,33372
21,09	7,3397	0,41056	0,33705
21,35	7,4827	0,41529	0,34178
21,62	7,5143	0,42022	0,3467
21,88	7,5934	0,42404	0,35053
22,14	7,7032	0,42921	0,3557
22,41	7,7776	0,43398	0,36047
22,67	8,0019	0,44399	0,37048
22,94	7,9305	0,44408	0,37057
23,2	7,859	0,44417	0,37066
23,46	7,9326	0,44935	0,37584
23,73	8,0492	0,45422	0,38071
23,99	8,0437	0,45777	0,38426
24,25	8,1122	0,4639	0,39039
24,52	8,0628	0,46855	0,39503
24,78	8,0318	0,4726	0,39909
25,04	7,9804	0,47756	0,40405
25,31	7,786	0,48248	0,40897
25,57	7,967	0,49273	0,41922
25,84	7,8308	0,49274	0,41923
26,1	7,7631	0,49274	0,41923
26,36	7,8309	0,49662	0,42311
26,63	7,9333	0,50223	0,42872
26,89	7,9635	0,50682	0,43331
27,15	8,03	0,51183	0,43832
27,42	8,1434	0,51777	0,44426
27,68	8,1965	0,52186	0,44835
27,94	8,2456	0,5265	0,45299
28,21	8,4401	0,53595	0,46244
28,47	8,3947	0,53816	0,46465
28,74	8,2798	0,53828	0,46477
29	8,2443	0,53974	0,46622
29,26	8,4551	0,54862	0,47511
29,53	8,4159	0,55127	0,47776
29,79	8,4309	0,55556	0,48205
30,05	8,4942	0,56036	0,48684
30,32	8,5297	0,56485	0,49134
30,58	8,5291	0,56916	0,49565
30,84	8,6524	0,57639	0,50288
31,11	8,7778	0,58424	0,51072
31,37	8,66	0,58439	0,51087
31,64	8,5423	0,58454	0,51103
31,9	8,6692	0,59211	0,51859
32,16	8,6672	0,59642	0,52291
32,43	8,5954	0,5991	0,52559
32,69	8,6543	0,60483	0,53132
32,95	8,6469	0,60875	0,53524
33,22	8,6952	0,61429	0,54078
33,48	8,7188	0,61858	0,54507
33,74	8,7424	0,62334	0,54983
34,01	8,8771	0,6316	0,55809
34,27	8,7837	0,63183	0,55832
34,54	8,7127	0,63285	0,55934
34,8	8,8552	0,64108	0,56756
35,06	8,8187	0,64409	0,57057
35,33	8,8271	0,64851	0,575
35,59	8,8967	0,6517	0,57818
35,85	8,9611	0,6571	0,58358
36,12	8,9961	0,66216	0,58864
36,38	9,0311	0,66673	0,59322
36,64	9,066	0,6713	0,59779
36,91	9,2871	0,6819	0,60838
37,17	9,1516	0,68193	0,60841
37,44	9,0388	0,68196	0,60845
37,7	9,0796	0,68543	0,61192
37,96	9,217	0,69278	0,61927
38,23	9,1953	0,69623	0,62272
38,49	9,244	0,70084	0,62733
38,75	9,2828	0,70547	0,63196
39,02	9,3339	0,71046	0,63695
39,28	9,3729	0,71529	0,64178
39,54	9,4107	0,72007	0,64656
39,81	9,6371	0,73138	0,65787
40,07	9,4905	0,7314	0,65789
40,34	9,3712	0,73142	0,65791
40,6	9,3086	0,73145	0,65793
40,86	9,5097	0,74074	0,66723
41,13	9,4891	0,74482	0,67131
41,39	9,557	0,74973	0,67622
41,65	9,5728	0,75405	0,68054
41,92	9,6106	0,75825	0,68474
42,18	9,656	0,76321	0,6897
42,44	9,7933	0,77175	0,69824
42,71	9,6897	0,77266	0,69915
42,97	9,7238	0,77684	0,70333
43,24	9,7267	0,78072	0,70721
43,5	9,8288	0,78728	0,71377
43,76	9,7628	0,78843	0,71492
44,03	9,7672	0,79273	0,71921
44,29	9,7922	0,79696	0,72345
44,55	9,8822	0,80308	0,72956
44,82	9,9103	0,80734	0,73383
45,08	9,9384	0,81199	0,73848
45,34	9,9549	0,81665	0,74314
45,61	10,131	0,82602	0,75251
45,87	9,9862	0,82603	0,75252
46,14	9,8655	0,82603	0,75252
46,4	9,996	0,83317	0,75966
46,66	10,028	0,83705	0,76354
46,93	10,005	0,84057	0,76706
47,19	10,036	0,84592	0,7724
47,45	10,096	0,85078	0,77727
47,72	10,049	0,85556	0,78205
47,98	10,021	0,85987	0,78636
48,24	10,011	0,86499	0,79147
48,51	10,162	0,87425	0,80074
48,77	9,994	0,8743	0,80079
49,04	9,8786	0,87435	0,80084
49,3	10,079	0,88313	0,80962
49,56	10,021	0,88465	0,81114
49,83	10,008	0,88857	0,81506
50,09	10,082	0,89478	0,82126
50,35	10,077	0,89887	0,82536
50,62	10,154	0,90338	0,82987
50,88	10,186	0,90829	0,83478
51,14	10,444	0,92024	0,84673
51,41	10,253	0,92029	0,84678
51,67	10,133	0,92035	0,84684
51,94	10,076	0,92158	0,84807
52,2	10,285	0,92997	0,85646
52,46	10,221	0,93255	0,85904
52,73	10,237	0,93747	0,86396
52,99	10,257	0,94267	0,86916
53,25	10,342	0,94813	0,87461
53,52	10,341	0,95191	0,8784
53,78	10,345	0,95665	0,88314
54,04	10,616	0,96843	0,89492
54,31	10,524	0,9706	0,89709
54,57	10,362	0,97062	0,89711
54,84	10,252	0,97065	0,89714
55,1	10,445	0,97851	0,905
55,36	10,385	0,98164	0,90813
55,63	10,412	0,98695	0,91344
55,89	10,468	0,99172	0,91821
56,15	10,453	0,99509	0,92158
56,42	10,528	1,0006	0,92708
56,68	10,562	1,0056	0,93207
56,94	10,685	1,0137	0,94016
57,21	10,542	1,0138	0,9403
57,47	10,442	1,014	0,94045
57,74	10,63	1,0229	0,94938
58	10,594	1,0255	0,95201
58,26	10,576	1,0288	0,95524
58,53	10,663	1,0351	0,96156
58,79	10,725	1,0403	0,96678
59,05	10,703	1,0435	0,97
59,32	10,759	1,049	0,97546
59,58	10,863	1,0564	0,98292
59,84	10,807	1,0587	0,9852
60,11	10,769	1,0618	0,98829
60,37	10,818	1,0674	0,99385
60,63	10,797	1,071	0,99744
60,9	10,806	1,0739	1,0004
61,16	10,79	1,0776	1,0041
61,43	10,886	1,0835	1,01
61,69	10,909	1,0881	1,0146
61,95	10,93	1,0927	1,0192
62,22	10,951	1,0973	1,0238
62,48	11,055	1,1044	1,0309
62,74	11,122	1,1104	1,0369
63,01	10,978	1,1105	1,037
63,27	10,853	1,1106	1,0371
63,53	11,065	1,1201	1,0466
63,8	10,99	1,1227	1,0492
64,06	10,989	1,1262	1,0526
64,33	11,082	1,1315	1,058
64,59	11,113	1,1366	1,0631
64,85	11,088	1,1399	1,0664
65,12	11,246	1,1486	1,0751
65,38	11,17	1,1506	1,0771
65,64	11,284	1,1586	1,0851
65,91	11,232	1,16	1,0865
66,17	11,112	1,1603	1,0868
66,43	11,275	1,1689	1,0954
66,7	11,144	1,1694	1,0959
66,96	11,179	1,1752	1,1016
67,23	11,255	1,1805	1,107
67,49	11,234	1,1836	1,1101
67,75	11,32	1,1894	1,1159
68,02	11,36	1,1951	1,1215
68,28	11,435	1,2015	1,128
68,54	11,32	1,2017	1,1282
68,81	11,424	1,2083	1,1348
69,07	11,366	1,2117	1,1382
69,33	11,348	1,2155	1,142
69,6	11,331	1,2185	1,145
69,86	11,361	1,2235	1,15
70,13	11,419	1,2285	1,155
70,39	11,409	1,2324	1,1589
70,65	11,48	1,2379	1,1644
70,92	11,533	1,2435	1,17
71,18	11,683	1,2519	1,1784
71,44	11,509	1,2519	1,1784
71,71	11,397	1,252	1,1784
71,97	11,528	1,2598	1,1863
72,23	11,545	1,2641	1,1906
72,5	11,503	1,2669	1,1934
72,76	11,535	1,2721	1,1986
73,03	11,587	1,2768	1,2033
73,29	11,577	1,2806	1,2071
73,55	11,669	1,2855	1,212
73,82	11,778	1,2933	1,2198
74,08	11,773	1,2969	1,2234
74,34	11,641	1,2971	1,2236
74,61	11,753	1,3053	1,2318
74,87	11,755	1,3085	1,235
75,13	11,727	1,3122	1,2387
75,4	11,739	1,3155	1,242
75,66	11,76	1,3208	1,2473
75,93	11,787	1,3252	1,2517
76,19	11,769	1,3285	1,255
76,45	11,868	1,3348	1,2613
76,72	11,892	1,3393	1,2658
76,98	12,073	1,3491	1,2756
77,24	11,907	1,3491	1,2756
77,51	11,758	1,3491	1,2756
77,77	11,932	1,358	1,2845
78,03	11,901	1,3595	1,286
78,3	11,884	1,3638	1,2903
78,56	11,929	1,3692	1,2957
78,83	11,96	1,3729	1,2994
79,09	11,989	1,3781	1,3046
79,35	12,012	1,3828	1,3093
79,62	12,034	1,3876	1,314
79,88	12,312	1,3994	1,3259
80,14	12,145	1,3993	1,3257
80,41	11,978	1,3991	1,3256
80,67	11,889	1,399	1,3254
80,93	12,111	1,4088	1,3353
81,2	12,086	1,4125	1,339
81,46	12,087	1,4171	1,3436
81,73	12,153	1,422	1,3485
81,99	12,188	1,4258	1,3523
82,25	12,199	1,4313	1,3578
82,52	12,387	1,4409	1,3674
82,78	12,248	1,4409	1,3674
83,04	12,109	1,4411	1,3676
83,31	12,344	1,4504	1,3769
83,57	12,28	1,453	1,3795
83,83	12,246	1,4561	1,3826
84,1	12,225	1,46	1,3865
84,36	12,31	1,4665	1,393
84,63	12,292	1,4706	1,3971
84,89	12,333	1,4748	1,4013
85,15	12,395	1,4801	1,4066
85,42	12,554	1,489	1,4155
85,68	12,418	1,489	1,4155
85,94	12,3	1,4899	1,4164
86,21	12,48	1,4978	1,4243
86,47	12,448	1,5011	1,4276
86,73	12,416	1,5044	1,4309
87	12,411	1,5079	1,4344
87,26	12,538	1,5151	1,4416
87,53	12,434	1,5171	1,4436
87,79	12,482	1,5238	1,4503
88,05	12,533	1,5291	1,4556
88,32	12,64	1,5354	1,4619
88,58	12,616	1,5389	1,4654
88,84	12,497	1,5389	1,4654
89,11	12,588	1,5456	1,4721
89,37	12,587	1,5492	1,4757
89,63	12,543	1,5532	1,4797
89,9	12,592	1,5572	1,4837
90,16	12,613	1,5626	1,4891
90,43	12,625	1,5661	1,4926
90,69	12,665	1,5716	1,4981
90,95	12,715	1,5767	1,5032
91,22	12,977	1,5879	1,5144
91,48	12,775	1,588	1,5145
91,74	12,615	1,588	1,5145
92,01	12,515	1,588	1,5145
92,27	12,729	1,5976	1,5241
92,53	12,699	1,6002	1,5267
92,8	12,733	1,6054	1,5319
93,06	12,827	1,6113	1,5378
93,33	12,789	1,6145	1,541
93,59	12,813	1,6194	1,5459
93,85	13,214	1,6338	1,5603
94,12	13,011	1,6338	1,5603
94,38	12,807	1,6339	1,5603
94,64	12,706	1,6339	1,5604
94,91	12,746	1,6378	1,5643
95,17	12,886	1,645	1,5715
95,43	12,866	1,6488	1,5753
95,7	12,964	1,6555	1,582
95,96	12,941	1,6593	1,5858
96,23	12,961	1,6638	1,5903
96,49	12,981	1,6683	1,5948
96,75	13,074	1,6757	1,6022
97,02	13,115	1,6807	1,6072
97,28	12,959	1,6809	1,6074
97,54	12,908	1,6829	1,6093
97,81	13,092	1,6914	1,6179
98,07	13,014	1,6929	1,6194
98,33	13,013	1,6975	1,624
98,6	13,065	1,7028	1,6293
98,86	13,099	1,7072	1,6337
99,12	13,087	1,7114	1,6379
99,39	13,207	1,718	1,6445
99,65	13,4	1,7278	1,6542
99,92	13,243	1,7278	1,6543
100,2	13,086	1,7278	1,6543
100,4	13,061	1,7318	1,6583
100,7	13,306	1,74	1,6665
101	13,143	1,7411	1,6676
101,2	13,171	1,7459	1,6724
101,5	13,218	1,7514	1,6779
101,8	13,218	1,7555	1,682
102	13,257	1,7609	1,6874
102,3	13,292	1,7654	1,6919
102,6	13,589	1,7771	1,7036
102,8	13,417	1,7772	1,7037
103,1	13,245	1,7772	1,7037
103,3	13,142	1,7773	1,7038
103,6	13,412	1,7885	1,715
103,9	13,314	1,79	1,7165
104,1	13,314	1,7946	1,7211
104,4	13,399	1,7991	1,7256
104,7	13,433	1,8048	1,7312
104,9	13,45	1,8093	1,7358
105,2	13,47	1,8139	1,7403
105,5	13,754	1,8259	1,7523
105,7	13,568	1,8259	1,7524
106	13,407	1,8259	1,7524
106,2	13,294	1,826	1,7525
106,5	13,533	1,8357	1,7622
106,8	13,447	1,8385	1,765
107	13,489	1,843	1,7695
107,3	13,547	1,8484	1,7749
107,6	13,521	1,8516	1,7781
107,8	13,593	1,8573	1,7838
108,1	13,62	1,8621	1,7886
108,4	13,873	1,8727	1,7992
108,6	13,713	1,8727	1,7992
108,9	13,553	1,8727	1,7992
109,1	13,535	1,8764	1,8029
109,4	13,683	1,8838	1,8103
109,7	13,605	1,8873	1,8138
109,9	13,648	1,8924	1,8188
110,2	13,682	1,8966	1,823
110,5	13,683	1,8996	1,8261
110,7	13,776	1,9056	1,832
111	13,822	1,9106	1,8371
111,3	13,857	1,917	1,8435
111,5	13,72	1,9178	1,8443
111,8	13,834	1,9235	1,85
112	13,879	1,9297	1,8562
112,3	13,83	1,9316	1,858
112,6	13,785	1,9348	1,8613
112,8	13,811	1,9396	1,8661
113,1	13,846	1,9445	1,871
113,4	13,881	1,9494	1,8759
113,6	13,91	1,9542	1,8807
113,9	13,938	1,959	1,8855
114,2	14,117	1,9681	1,8946
114,4	13,949	1,9681	1,8946
114,7	13,786	1,9682	1,8947
114,9	13,909	1,974	1,9005
115,2	13,987	1,98	1,9065
115,5	13,95	1,9836	1,9101
115,7	13,956	1,9889	1,9154
116	13,976	1,992	1,9185
116,3	14,048	1,9978	1,9243
116,5	14,025	2,0012	1,9276
116,8	14,487	2,0169	1,9434
117,1	14,282	2,0169	1,9434
117,3	14,077	2,017	1,9435
117,6	13,947	2,017	1,9435
117,8	13,834	2,0174	1,9439
118,1	14,127	2,0279	1,9544
118,4	14,102	2,0314	1,9579
118,6	14,131	2,0375	1,964
118,9	14,154	2,0417	1,9682
119,2	14,212	2,0463	1,9728
119,4	14,242	2,0508	1,9773
119,7	14,482	2,0612	1,9877
120	14,34	2,0619	1,9884
120,2	14,182	2,062	1,9885
120,5	14,26	2,0682	1,9947
120,7	14,288	2,0724	1,9989
121	14,212	2,0752	2,0017
121,3	14,247	2,0794	2,0059
121,5	14,34	2,0857	2,0122
121,8	14,367	2,0902	2,0167
122,1	14,381	2,0948	2,0213
122,3	14,404	2,0994	2,0258
122,6	14,699	2,1103	2,0368
122,9	14,512	2,1105	2,0369
123,1	14,326	2,1106	2,037
123,4	14,313	2,1146	2,0411
123,6	14,45	2,1209	2,0474
123,9	14,402	2,1241	2,0506
124,2	14,426	2,1292	2,0557
124,4	14,485	2,1342	2,0607
124,7	14,436	2,1368	2,0632
125	14,536	2,1431	2,0696
125,2	14,556	2,1477	2,0742
125,5	14,789	2,158	2,0845
125,8	14,609	2,1581	2,0845
126	14,429	2,1581	2,0846
126,3	14,632	2,1662	2,0927
126,5	14,564	2,1687	2,0952
126,8	14,521	2,1717	2,0982
127,1	14,57	2,1773	2,1038
127,3	14,653	2,1821	2,1085
127,6	14,61	2,1861	2,1126
127,9	14,613	2,1902	2,1167
128,1	14,765	2,198	2,1245
128,4	14,855	2,2043	2,1308
128,7	14,704	2,2044	2,1308
128,9	14,636	2,2069	2,1334
129,2	14,813	2,2143	2,1408
129,4	14,664	2,2156	2,1421
129,7	14,666	2,2197	2,1462
130	14,696	2,2253	2,1518
130,2	14,781	2,2315	2,158
130,5	14,798	2,2353	2,1618
130,8	14,813	2,2398	2,1663
131	14,829	2,2444	2,1709
131,3	15,067	2,2541	2,1806
131,6	14,884	2,2541	2,1806
131,8	14,708	2,2542	2,1807
132,1	14,853	2,2609	2,1874
132,3	14,851	2,2652	2,1917
132,6	14,834	2,2687	2,1952
132,9	14,938	2,2743	2,2008
133,1	14,929	2,2786	2,2051
133,4	14,92	2,2821	2,2086
133,7	15,072	2,2902	2,2166
133,9	15,147	2,2962	2,2227
134,2	15,103	2,2992	2,2257
134,5	14,945	2,2992	2,2257
134,7	15,038	2,305	2,2315
135	15,068	2,3101	2,2366
135,2	14,934	2,3118	2,2383
135,5	14,991	2,3172	2,2437
135,8	15,068	2,3224	2,2489
136	15,053	2,3264	2,2529
136,3	15,166	2,3327	2,2592
136,6	15,186	2,3378	2,2643
136,8	15,22	2,3433	2,2698
137,1	15,204	2,3455	2,272
137,4	15,193	2,3499	2,2764
137,6	15,151	2,3539	2,2804
137,9	15,157	2,3583	2,2848
138,1	15,118	2,3611	2,2876
138,4	15,193	2,3657	2,2922
138,7	15,206	2,3712	2,2976
138,9	15,207	2,3747	2,3012
139,2	15,259	2,3806	2,3071
139,5	15,32	2,3859	2,3123
139,7	15,575	2,3961	2,3225
140	15,383	2,3961	2,3226
140,3	15,192	2,3961	2,3226
140,5	15,083	2,3974	2,3239
140,8	15,357	2,4063	2,3328
141	15,291	2,4087	2,3352
141,3	15,265	2,4142	2,3407
141,6	15,346	2,4199	2,3464
141,8	15,31	2,4231	2,3496
142,1	15,398	2,4286	2,3551
142,4	15,411	2,4332	2,3597
142,6	15,755	2,4454	2,3719
142,9	15,545	2,4454	2,3719
143,2	15,334	2,4453	2,3718
143,4	15,208	2,4453	2,3718
143,7	15,454	2,455	2,3815
143,9	15,4	2,4584	2,3849
144,2	15,412	2,4628	2,3893
144,5	15,484	2,4678	2,3943
144,7	15,446	2,4709	2,3974
145	15,502	2,4766	2,4031
145,3	15,592	2,4819	2,4084
145,5	15,627	2,4879	2,4144
145,8	15,47	2,4883	2,4148
146,1	15,581	2,4948	2,4212
146,3	15,694	2,5021	2,4286
146,6	15,561	2,5025	2,429
146,8	15,499	2,5061	2,4326
147,1	15,568	2,5104	2,4369
147,4	15,61	2,5158	2,4423
147,6	15,63	2,521	2,4475
147,9	15,651	2,5258	2,4522
148,2	15,672	2,5305	2,457
148,4	15,856	2,5389	2,4654
148,7	15,688	2,5389	2,4654
149	15,52	2,5394	2,4659
149,2	15,677	2,5466	2,4731
149,5	15,735	2,5512	2,4777
149,7	15,67	2,5547	2,4812
150	15,707	2,5593	2,4858
150,3	15,751	2,5637	2,4902
150,5	15,763	2,5689	2,4953
150,8	15,782	2,5724	2,4988
151,1	16,009	2,5831	2,5096
151,3	15,883	2,5833	2,5098
151,6	15,771	2,5851	2,5116
151,9	15,9	2,5912	2,5177
152,1	15,98	2,5973	2,5238
152,4	15,835	2,5983	2,5248
152,6	15,844	2,6024	2,5289
152,9	15,929	2,6085	2,535
153,2	15,911	2,6124	2,5389
153,4	15,916	2,6164	2,5429
153,7	15,969	2,6218	2,5483
154	16,22	2,6321	2,5586
154,2	16,056	2,6323	2,5588
154,5	15,893	2,6325	2,559
154,8	16,071	2,6405	2,567
155	16,037	2,6438	2,5703
155,3	16,003	2,6467	2,5732
155,5	15,981	2,6501	2,5766
155,8	16,122	2,6581	2,5846
156,1	16,091	2,661	2,5875
156,3	16,095	2,6655	2,592
156,6	16,105	2,6699	2,5964
156,9	16,3	2,6784	2,6049
157,1	16,406	2,6857	2,6122
157,4	16,184	2,6855	2,6119
157,7	16,007	2,6852	2,6117
157,9	15,88	2,6853	2,6118
158,2	16,153	2,6953	2,6218
158,4	16,104	2,6993	2,6258
158,7	16,135	2,7048	2,6313
159	16,203	2,7095	2,636
159,2	16,243	2,7142	2,6407
159,5	16,277	2,7189	2,6454
159,8	16,464	2,7279	2,6544
160	16,295	2,728	2,6545
160,3	16,126	2,7281	2,6546
160,6	16,385	2,7376	2,6641
160,8	16,265	2,7394	2,6659
161,1	16,23	2,7432	2,6697
161,3	16,403	2,7498	2,6763
161,6	16,327	2,7531	2,6796
161,9	16,306	2,7566	2,6831
162,1	16,406	2,7617	2,6882
162,4	16,48	2,7696	2,6961
162,7	16,56	2,7746	2,7011
162,9	16,412	2,7747	2,7012
163,2	16,454	2,7799	2,7064
163,5	16,518	2,7862	2,7127
163,7	16,378	2,7878	2,7143
164	16,355	2,7911	2,7176
164,2	16,49	2,7968	2,7233
164,5	16,513	2,8024	2,7288
164,8	16,53	2,8068	2,7333
165	16,55	2,8113	2,7378
165,3	16,574	2,8159	2,7423
165,6	16,798	2,8258	2,7523
165,8	16,587	2,8259	2,7524
166,1	16,404	2,8259	2,7524
166,4	16,558	2,8327	2,7592
166,6	16,555	2,8354	2,7618
166,9	16,545	2,8398	2,7663
167,1	16,589	2,8456	2,7721
167,4	16,622	2,8497	2,7762
167,7	16,657	2,8545	2,781
167,9	16,736	2,8598	2,7863
168,2	16,9	2,8687	2,7951
168,5	16,74	2,8688	2,7953
168,7	16,624	2,8709	2,7974
169	16,731	2,8771	2,8036
169,3	16,804	2,882	2,8085
169,5	16,679	2,8836	2,8101
169,8	16,716	2,8879	2,8144
170	16,745	2,894	2,8205
170,3	16,771	2,8977	2,8242
170,6	16,844	2,9036	2,8301
170,8	16,877	2,9083	2,8348
171,1	16,973	2,9154	2,8419
171,4	16,888	2,9171	2,8436
171,6	16,831	2,9204	2,8469
171,9	16,91	2,9258	2,8523
172,2	16,872	2,929	2,8555
172,4	16,834	2,9322	2,8587
172,7	16,824	2,9366	2,8631
172,9	16,914	2,9419	2,8684
173,2	16,973	2,9465	2,873
173,5	16,977	2,9511	2,8776
173,7	16,991	2,9559	2,8824
174	17,288	2,9671	2,8936
174,3	17,093	2,9672	2,8937
174,5	16,898	2,9673	2,8938
174,8	16,864	2,9707	2,8972
175,1	17,001	2,9776	2,9041
175,3	16,945	2,9808	2,9073
175,6	16,994	2,9849	2,9114
175,8	17,08	2,9905	2,917
176,1	17,032	2,9941	2,9206
176,4	17,108	3,0001	2,9266
176,6	17,149	3,0051	2,9316
176,9	17,31	3,0133	2,9398
177,2	17,134	3,0134	2,9399
177,4	16,978	3,0136	2,9401
177,7	17,218	3,0229	2,9494
178	17,114	3,0254	2,9519
178,2	17,104	3,0292	2,9557
178,5	17,233	3,0339	2,9604
178,7	17,23	3,0392	2,9656
179	17,186	3,0424	2,9689
179,3	17,231	3,0487	2,9752
179,5	17,276	3,053	2,9795
179,8	17,67	3,0652	2,9917
180,1	17,439	3,0652	2,9917
180,3	17,212	3,0653	2,9917
180,6	17,064	3,0653	2,9918
180,9	17,33	3,0745	3,001
181,1	17,271	3,0779	3,0044
181,4	17,27	3,0818	3,0083
181,6	17,343	3,0871	3,0136
181,9	17,396	3,092	3,0184
182,2	17,415	3,0965	3,023
182,4	17,433	3,1011	3,0276
182,7	17,611	3,1095	3,036
183	17,439	3,1103	3,0368
183,2	17,279	3,1113	3,0378
183,5	17,472	3,1185	3,045
183,8	17,467	3,1226	3,049
184	17,401	3,1265	3,053
184,3	17,396	3,1306	3,0571
184,5	17,482	3,1355	3,062
184,8	17,453	3,1391	3,0656
185,1	17,499	3,1451	3,0716
185,3	17,764	3,1545	3,081
185,6	17,573	3,1547	3,0812
185,9	17,416	3,1561	3,0826
186,1	17,56	3,1626	3,0891
186,4	17,614	3,169	3,0954
186,7	17,449	3,1693	3,0958
186,9	17,446	3,1737	3,1002
187,2	17,51	3,1797	3,1061
187,4	17,485	3,1831	3,1096
187,7	17,533	3,1886	3,115
188	17,583	3,1936	3,1201
188,2	17,721	3,2007	3,1272
188,5	17,748	3,2057	3,1322
188,8	17,578	3,2057	3,1322
189	17,53	3,2088	3,1353
189,3	17,66	3,2147	3,1412
189,6	17,576	3,2177	3,1442
189,8	17,565	3,2215	3,148
190,1	17,709	3,2285	3,155
190,3	17,724	3,2331	3,1595
190,6	17,74	3,2376	3,1641
190,9	17,762	3,2419	3,1684
191,1	18,039	3,2525	3,179
191,4	17,842	3,2526	3,1791
191,7	17,646	3,2526	3,1791
191,9	17,511	3,2529	3,1794
192,2	17,81	3,2646	3,1911
192,5	17,751	3,2664	3,1929
192,7	17,757	3,2708	3,1973
193	17,876	3,2772	3,2037
193,2	17,89	3,2807	3,2071
193,5	17,903	3,2853	3,2118
193,8	17,913	3,29	3,2165
194	18,072	3,2978	3,2243
194,3	17,907	3,2981	3,2246
194,6	17,956	3,3034	3,2299
194,8	18,029	3,3095	3,236
195,1	17,92	3,311	3,2375
195,3	17,891	3,3143	3,2408
195,6	17,948	3,3192	3,2457
195,9	18,029	3,3252	3,2517
196,1	18,019	3,3292	3,2557
196,4	18,013	3,3331	3,2596
196,7	18,363	3,3446	3,2711
196,9	18,178	3,3452	3,2716
197,2	17,986	3,3453	3,2718
197,5	18,004	3,3505	3,277
197,7	18,166	3,3574	3,2839
198	18,03	3,358	3,2845
198,2	18,022	3,3621	3,2886
198,5	18,118	3,3691	3,2956
198,8	18,158	3,3735	3,3
199	18,168	3,3779	3,3044
199,3	18,179	3,3823	3,3088
199,6	18,254	3,3874	3,3139
199,8	18,564	3,3985	3,325
200,1	18,362	3,3985	3,325
200,4	18,16	3,3986	3,325
200,6	17,992	3,3986	3,3251
200,9	18,255	3,4076	3,3341
201,1	18,176	3,4106	3,3371
201,4	18,242	3,4172	3,3437
201,7	18,256	3,421	3,3474
201,9	18,283	3,425	3,3515
202,2	18,307	3,4306	3,3571
202,5	18,706	3,4428	3,3692
202,7	18,501	3,4428	3,3693
203	18,297	3,4429	3,3694
203,3	18,128	3,4429	3,3694
203,5	18,494	3,454	3,3805
203,8	18,351	3,4551	3,3816
204	18,346	3,4595	3,386
204,3	18,393	3,4653	3,3918
204,6	18,443	3,4698	3,3963
204,8	18,451	3,4743	3,4008
205,1	18,459	3,4788	3,4053
205,4	18,735	3,4893	3,4158
205,6	18,633	3,4916	3,4181
205,9	18,434	3,4918	3,4183
206,2	18,27	3,4919	3,4184
206,4	18,579	3,5016	3,4281
206,7	18,472	3,5035	3,43
206,9	18,452	3,5074	3,4339
207,2	18,549	3,5137	3,4402
207,5	18,577	3,5182	3,4447
207,7	18,565	3,5226	3,449
208	18,686	3,5287	3,4552
208,3	18,914	3,539	3,4655
208,5	18,72	3,539	3,4655
208,8	18,526	3,539	3,4655
209,1	18,358	3,5384	3,4649
209,3	18,758	3,5505	3,477
209,6	18,635	3,5514	3,4778
209,8	18,619	3,5562	3,4827
210,1	18,721	3,562	3,4884
210,4	18,689	3,5655	3,492
210,6	18,789	3,5708	3,4973
210,9	18,824	3,5761	3,5026
211,2	18,922	3,5836	3,51
211,4	18,799	3,5845	3,5109
211,7	18,806	3,5884	3,5149
212	18,886	3,594	3,5205
212,2	18,834	3,5974	3,5239
212,5	18,757	3,6	3,5265
212,7	18,819	3,6058	3,5322
213	18,85	3,6105	3,537
213,3	18,864	3,6142	3,5407
213,5	18,924	3,6195	3,546
213,8	18,978	3,6246	3,551
214,1	19,111	3,6316	3,5581
214,3	18,966	3,6319	3,5584
214,6	18,966	3,637	3,5635
214,9	19,065	3,6435	3,5699
215,1	18,971	3,645	3,5715
215,4	18,938	3,6482	3,5747
215,6	18,938	3,6521	3,5786
215,9	19,057	3,6589	3,5854
216,2	19,048	3,663	3,5894
216,4	19,039	3,667	3,5935
216,7	19,303	3,6772	3,6037
217	19,143	3,678	3,6045
217,2	19,27	3,6846	3,6111
217,5	19,157	3,6861	3,6126
217,8	19,085	3,6888	3,6153
218	19,138	3,6934	3,6199
218,3	19,076	3,6969	3,6234
218,5	19,071	3,7008	3,6273
218,8	19,157	3,7063	3,6328
219,1	19,132	3,7103	3,6368
219,3	19,263	3,7161	3,6426
219,6	19,389	3,7231	3,6496
219,9	19,397	3,7278	3,6543
220,1	19,212	3,728	3,6545
220,4	19,149	3,7318	3,6583
220,7	19,36	3,7399	3,6663
220,9	19,223	3,7404	3,6669
221,2	19,186	3,7445	3,671
221,4	19,279	3,75	3,6765
221,7	19,321	3,7555	3,682
222	19,343	3,7601	3,6866
222,2	19,365	3,7648	3,6913
222,5	19,439	3,7706	3,6971
222,8	19,493	3,7754	3,7019
223	19,314	3,7756	3,7021
223,3	19,461	3,7826	3,7091
223,6	19,431	3,7866	3,7131
223,8	19,375	3,7889	3,7154
224,1	19,368	3,7927	3,7191
224,3	19,499	3,7992	3,7257
224,6	19,498	3,8038	3,7303
224,9	19,497	3,8071	3,7336
225,1	19,625	3,8136	3,7401
225,4	19,833	3,8225	3,749
225,7	19,633	3,8225	3,749
225,9	19,433	3,8225	3,749
226,2	19,592	3,8293	3,7558
226,5	19,703	3,8355	3,762
226,7	19,603	3,8375	3,764
227	19,626	3,841	3,7675
227,2	19,735	3,8479	3,7744
227,5	19,727	3,8519	3,7784
227,8	19,736	3,8561	3,7826
228	19,824	3,8623	3,7888
228,3	19,89	3,8679	3,7944
228,6	19,743	3,8698	3,7963
228,8	19,77	3,8745	3,801
229,1	19,905	3,8806	3,807
229,4	19,758	3,8814	3,8079
229,6	19,737	3,8858	3,8122
229,9	19,849	3,8908	3,8173
230,1	19,866	3,8964	3,8229
230,4	19,83	3,8996	3,8261
230,7	19,913	3,9041	3,8306
230,9	20,016	3,911	3,8375
231,2	20,2	3,9192	3,8457
231,5	19,985	3,9192	3,8457
231,7	19,77	3,9192	3,8457
232	19,952	3,9268	3,8533
232,3	19,921	3,9301	3,8566
232,5	19,88	3,9339	3,8604
232,8	19,982	3,9397	3,8662
233	20,004	3,9443	3,8708
233,3	19,99	3,9482	3,8747
233,6	20,032	3,9522	3,8787
233,8	20,176	3,9601	3,8866
234,1	20,106	3,9635	3,89
234,4	20,036	3,9671	3,8936
234,6	20,044	3,9713	3,8978
234,9	20,056	3,9755	3,902
235,2	20,067	3,9791	3,9056
235,4	20,037	3,9819	3,9084
235,7	20,147	3,988	3,9145
235,9	20,098	3,9912	3,9177
236,2	20,207	3,9969	3,9234
236,5	20,232	4,0018	3,9282
236,7	20,534	4,0128	3,9393
237	20,387	4,0143	3,9408
237,3	20,175	4,0144	3,9409
237,5	19,991	4,0145	3,941
237,8	20,331	4,0247	3,9512
238,1	20,213	4,0267	3,9532
238,3	20,192	4,0307	3,9572
238,6	20,309	4,0365	3,963
238,8	20,332	4,0412	3,9677
239,1	20,355	4,0457	3,9722
239,4	20,379	4,0501	3,9766
239,6	20,479	4,0563	3,9828
239,9	20,502	4,0607	3,9872
240,2	20,319	4,0611	3,9876
240,4	20,441	4,0678	3,9943
240,7	20,476	4,0722	3,9987
241	20,334	4,0746	4,0011
241,2	20,354	4,0784	4,0049
241,5	20,516	4,0856	4,0121
241,7	20,495	4,0896	4,0161
242	20,472	4,0935	4,02
242,3	20,575	4,0989	4,0254
242,5	20,915	4,1105	4,037
242,8	20,673	4,1103	4,0367
243,1	20,43	4,11	4,0365
243,3	20,279	4,11	4,0365
243,6	20,616	4,1212	4,0476
243,9	20,536	4,1231	4,0496
244,1	20,522	4,1272	4,0537
244,4	20,583	4,1328	4,0593
244,6	20,608	4,1371	4,0636
244,9	20,636	4,1424	4,0689
245,2	20,665	4,1473	4,0738
245,4	20,991	4,1574	4,0839
245,7	20,783	4,1575	4,084
246	20,575	4,1577	4,0842
246,2	20,661	4,163	4,0895
246,5	20,777	4,1688	4,0953
246,8	20,674	4,1717	4,0982
247	20,716	4,1765	4,1029
247,3	20,759	4,1809	4,1074
247,5	20,768	4,1862	4,1127
247,8	20,729	4,1895	4,116
248,1	20,988	4,1989	4,1254
248,3	20,897	4,201	4,1275
248,6	20,708	4,2013	4,1278
248,9	20,9	4,2092	4,1357
249,1	20,888	4,2128	4,1393
249,4	20,843	4,2165	4,143
249,7	20,767	4,219	4,1455
249,9	20,778	4,224	4,1505
250,2	20,867	4,2301	4,1566
250,4	20,851	4,2338	4,1603
250,7	20,835	4,2375	4,1639
251	20,971	4,2448	4,1712
251,2	21,143	4,2534	4,1799
251,5	20,992	4,2536	4,1801
251,8	20,81	4,2538	4,1802
252	20,942	4,2606	4,1871
252,3	20,87	4,2646	4,1911
252,6	20,894	4,268	4,1945
252,8	20,88	4,2725	4,199
253,1	20,945	4,2779	4,2044
253,3	20,909	4,2813	4,2077
253,6	21,026	4,2875	4,2139
253,9	21,059	4,2921	4,2186
254,1	21,288	4,3014	4,2279
254,4	21,071	4,3014	4,2279
254,7	20,854	4,3015	4,2279
254,9	21,226	4,3114	4,2379
255,2	21,058	4,3123	4,2388
255,5	21,015	4,3156	4,2421
255,7	21,058	4,3209	4,2474
256	21,078	4,3265	4,2529
256,2	21,096	4,331	4,2575
256,5	21,114	4,3356	4,2621
256,8	21,132	4,3405	4,267
257	21,318	4,3478	4,2743
257,3	21,095	4,3479	4,2744
257,6	21,071	4,3518	4,2783
257,8	21,181	4,359	4,2855
258,1	21,032	4,3601	4,2866
258,4	21,07	4,3637	4,2902
258,6	21,23	4,3706	4,2971
258,9	21,2	4,3745	4,301
259,1	21,159	4,3784	4,3049
259,4	21,241	4,3842	4,3107
259,7	21,527	4,3949	4,3214
259,9	21,293	4,3949	4,3214
260,2	21,059	4,3949	4,3214
260,5	21,128	4,3993	4,3258
260,7	21,285	4,4065	4,333
261	21,131	4,4089	4,3354
261,3	21,113	4,412	4,3385
261,5	21,245	4,4198	4,3463
261,8	21,15	4,4225	4,3489
262	21,132	4,4265	4,353
262,3	21,273	4,4332	4,3597
262,6	21,433	4,4413	4,3678
262,8	21,248	4,4423	4,3688
263,1	21,1	4,4442	4,3706
263,4	21,279	4,4519	4,3784
263,6	21,127	4,4527	4,3792
263,9	21,117	4,4572	4,3837
264,2	21,168	4,462	4,3885
264,4	21,202	4,4673	4,3938
264,7	21,156	4,4713	4,3978
264,9	21,212	4,476	4,4025
265,2	21,316	4,4829	4,4094
265,5	21,38	4,4894	4,4159
265,7	21,147	4,4895	4,4159
266	20,941	4,4895	4,416
266,3	21,273	4,4999	4,4264
266,5	21,076	4,5005	4,4269
266,8	21,047	4,5047	4,4312
267,1	21,124	4,5106	4,4371
267,3	21,124	4,5155	4,442
267,6	21,091	4,5197	4,4462
267,8	21,096	4,5236	4,4501
268,1	21,345	4,5332	4,4597
268,4	21,317	4,538	4,4645
268,6	21,052	4,5381	4,4646
268,9	20,818	4,5382	4,4647
269,2	21,072	4,5463	4,4728
269,4	20,988	4,5507	4,4772
269,7	20,9	4,5532	4,4796
270	20,969	4,559	4,4855
270,2	20,868	4,5628	4,4893
270,5	20,902	4,5685	4,495
270,7	20,847	4,5732	4,4997
271	21,086	4,584	4,5105
271,3	20,67	4,5858	4,5123
271,5	20,226	4,5859	4,5124
271,8	19,821	4,5859	4,5124
272,1	19,793	4,5963	4,5228
272,3	18,779	4,5973	4,5238
272,6	17,768	4,602	4,5284
272,9	16,862	4,608	4,5344
273,1	16,084	4,6123	4,5388
273,4	15,526	4,6168	4,5433
273,6	15,061	4,6213	4,5478
273,9	14,714	4,6258	4,5523
274,2	14,589	4,6354	4,5619
274,4	14,099	4,6355	4,562
274,7	13,792	4,6356	4,5621
275	13,77	4,6399	4,5664
275,2	13,715	4,6459	4,5724
275,5	13,559	4,6498	4,5762
275,8	13,551	4,6555	4,5819
276	13,436	4,6605	4,587
276,3	13,321	4,6645	4,591
276,5	13,366	4,6711	4,5975
276,8	13,236	4,6757	4,6022
277,1	13,047	4,6795	4,606
277,3	12,944	4,6839	4,6104
277,6	12,772	4,6861	4,6126
277,9	12,766	4,6925	4,619
278,1	12,547	4,6942	4,6207
278,4	12,476	4,6989	4,6253
278,7	12,448	4,7044	4,6309
278,9	12,309	4,7074	4,6339
279,2	12,285	4,7135	4,64
279,4	12,19	4,7184	4,6449
279,7	12,206	4,7265	4,653
280	11,922	4,7276	4,6541
280,2	11,827	4,7326	4,6591
280,5	11,743	4,7358	4,6623
280,8	11,631	4,7388	4,6653
281	11,538	4,7425	4,669
281,3	11,497	4,7474	4,6739
281,6	11,43	4,7522	4,6787
281,8	11,364	4,7563	4,6827
282,1	11,305	4,7612	4,6877
282,3	11,246	4,7661	4,6926
282,6	11,285	4,7746	4,7011
282,9	11,147	4,7765	4,703
283,1	10,948	4,7768	4,7032
283,4	11,158	4,7862	4,7127
283,7	11,003	4,7874	4,7139
283,9	10,909	4,7909	4,7174
284,2	10,902	4,7953	4,7218
284,5	10,965	4,8008	4,7273
284,7	10,938	4,8054	4,7319
285	10,911	4,81	4,7365
285,2	10,885	4,8146	4,7411
285,5	11,1	4,8256	4,7521
285,8	10,814	4,8257	4,7522
286	10,629	4,8258	4,7523
286,3	10,582	4,8293	4,7558
286,6	10,696	4,836	4,7625
286,8	10,576	4,8396	4,7661
287,1	10,571	4,8435	4,77
287,4	10,618	4,8503	4,7768
287,6	10,529	4,8534	4,7799
287,9	10,548	4,8579	4,7843
288,1	10,648	4,8664	4,7929
288,4	10,493	4,8697	4,7962
288,7	10,306	4,8704	4,7969
288,9	10,405	4,8762	4,8027
289,2	10,422	4,8819	4,8084
289,5	10,256	4,8831	4,8096
289,7	10,215	4,8873	4,8138
290	10,221	4,8928	4,8193
290,3	10,181	4,8966	4,8231
290,5	10,188	4,902	4,8285
290,8	10,187	4,907	4,8334
291	10,184	4,9127	4,8392
291,3	10,214	4,9194	4,8459
291,6	9,968	4,9196	4,8461
291,8	9,8306	4,9198	4,8463
292,1	9,9761	4,9296	4,8561
292,4	9,8526	4,9311	4,8576
292,6	9,8481	4,9347	4,8612
292,9	9,8853	4,9416	4,8681
293,2	9,8622	4,9457	4,8722
293,4	9,8062	4,9498	4,8763
293,7	9,8092	4,9555	4,882
293,9	10,005	4,9662	4,8927
294,2	9,7614	4,9662	4,8927
294,5	9,5724	4,9662	4,8927
294,7	9,4908	4,9679	4,8944
295	9,7792	4,9782	4,9047
295,3	9,5896	4,9797	4,9062
295,5	9,5558	4,9838	4,9103
295,8	9,5238	4,9901	4,9165
296,1	9,4741	4,9945	4,921
296,3	9,4244	4,9989	4,9254
296,6	9,3748	5,0035	4,9299
296,8	9,5476	5,0135	4,94
297,1	9,3106	5,0136	4,9401
297,4	9,1148	5,0138	4,9403
297,6	9,2586	5,0231	4,9496
297,9	9,1073	5,0241	4,9506
298,2	9,0407	5,028	4,9545
298,4	9,0204	5,0333	4,9598
298,7	9,0266	5,0388	4,9653
299	8,9651	5,043	4,9695
299,2	8,8967	5,0469	4,9733
299,5	9,0389	5,0563	4,9828
299,7	8,8891	5,0599	4,9864
300	8,6651	5,0599	4,9864
300,3	8,5657	5,061	4,9875
300,5	8,7581	5,0697	4,9962
300,8	8,6515	5,0721	4,9986
301,1	8,6108	5,0758	5,0023
301,3	8,6407	5,0821	5,0086
301,6	8,6393	5,0866	5,0131
301,9	8,5801	5,0903	5,0168
302,1	8,5209	5,0939	5,0204
302,4	8,6026	5,1034	5,0299
302,6	8,4992	5,1077	5,0342
302,9	8,2789	5,1078	5,0343
303,2	8,2917	5,1129	5,0394
303,4	8,2693	5,1185	5,045
303,7	8,1939	5,1214	5,0479
304	8,1152	5,1243	5,0508
304,2	8,0715	5,13	5,0565
304,5	8,0245	5,134	5,0605
304,8	7,9251	5,1387	5,0652
305	7,8469	5,1445	5,071
305,3	7,9563	5,1563	5,0828
305,5	7,6414	5,1564	5,0829
305,8	7,4483	5,1565	5,0829
306,1	7,351	5,158	5,0845
306,3	7,4639	5,1669	5,0933
306,6	7,3013	5,1685	5,095
306,9	7,2493	5,1727	5,0992
307,1	7,2654	5,1802	5,1067
307,4	7,152	5,183	5,1095
307,7	7,0386	5,1877	5,1142
307,9	6,9544	5,1924	5,1189
308,2	7,024	5,2031	5,1295
308,4	6,812	5,204	5,1305
308,7	6,6081	5,2041	5,1306
309	6,5661	5,2079	5,1344
309,2	6,5914	5,2154	5,1418
309,5	6,3951	5,2168	5,1433
309,8	6,3122	5,2209	5,1474
310	6,2385	5,2272	5,1537
310,3	6,1748	5,232	5,1585
310,6	6,0973	5,2364	5,1629
310,8	6,0201	5,2409	5,1674
311,1	6,096	5,2529	5,1794
311,3	5,7917	5,2532	5,1797
311,6	5,6552	5,2536	5,18
311,9	5,5467	5,2537	5,1802
312,1	5,6916	5,2636	5,1901
312,4	5,5863	5,2651	5,1916
312,7	5,5373	5,2694	5,1959
312,9	5,5396	5,2759	5,2024
313,2	5,4725	5,2789	5,2054
313,5	5,4615	5,2846	5,2111
313,7	5,4318	5,2894	5,2159
314	5,3847	5,2943	5,2208
314,2	5,3604	5,3006	5,227
314,5	5,2641	5,3012	5,2277
314,8	5,2443	5,3063	5,2328
315	5,224	5,3105	5,237
315,3	5,1709	5,3133	5,2398
315,6	5,163	5,3185	5,245
315,8	5,1363	5,3239	5,2503
316,1	5,0854	5,3268	5,2533
316,4	5,0659	5,3328	5,2592
316,6	5,0511	5,3377	5,2642
316,9	5,0734	5,3458	5,2722
317,1	4,9501	5,346	5,2725
317,4	4,9234	5,3504	5,2769
317,7	4,9374	5,3566	5,2831
317,9	4,828	5,3584	5,2849
318,2	4,8111	5,3619	5,2884
318,5	4,7942	5,3664	5,2929
318,7	4,8016	5,3728	5,2993
319	4,7718	5,3774	5,3039
319,3	4,742	5,382	5,3085
319,5	4,7122	5,3865	5,313
319,8	4,7569	5,3968	5,3233
320	4,597	5,3969	5,3234
320,3	4,5104	5,397	5,3235
320,6	4,501	5,3999	5,3264
320,8	4,5396	5,4074	5,3339
321,1	4,4724	5,4108	5,3373
321,4	4,4705	5,4156	5,3421
321,6	4,4337	5,4201	5,3466
321,9	4,3857	5,4247	5,3512
322,2	4,375	5,4288	5,3552
322,4	4,4115	5,4374	5,3639
322,7	4,335	5,4454	5,3719
322,9	4,2114	5,4454	5,3719
323,2	4,1291	5,4454	5,3719
323,5	4,0823	5,4454	5,3719
323,7	4,2102	5,4563	5,3828
324	4,1293	5,4594	5,3858
324,3	4,1238	5,4643	5,3908
324,5	4,0932	5,4683	5,3948
324,8	4,0616	5,4736	5,4001
325,1	4,0386	5,4778	5,4043
325,3	4,0082	5,4833	5,4098
325,6	3,9812	5,4904	5,4169
325,8	3,8561	5,4906	5,4171
326,1	3,8036	5,4913	5,4178
326,4	3,8699	5,5023	5,4288
326,6	3,8249	5,5032	5,4296
326,9	3,7875	5,5064	5,4329
327,2	3,7776	5,5125	5,439
327,4	3,7483	5,5173	5,4438
327,7	3,7152	5,5214	5,4478
328	3,6801	5,5259	5,4524
328,2	3,6773	5,5326	5,459
328,5	3,6403	5,5383	5,4648
328,7	3,5855	5,5415	5,468
329	3,5123	5,5416	5,4681
329,3	3,5366	5,5493	5,4758
329,5	3,482	5,5507	5,4771
329,8	3,4317	5,555	5,4815
330,1	3,4128	5,5602	5,4867
330,3	3,3664	5,5652	5,4917
330,6	3,3289	5,5697	5,4962
330,9	3,3111	5,5745	5,501
331,1	3,3509	5,5842	5,5107
331,4	3,2043	5,5856	5,5121
331,6	3,1402	5,5856	5,5121
331,9	3,1912	5,5943	5,5208
332,2	3,1231	5,5959	5,5224
332,4	3,0781	5,5995	5,526
332,7	3,0621	5,6028	5,5293
333	3,0616	5,6101	5,5366
333,2	3,0206	5,6129	5,5394
333,5	2,9976	5,6173	5,5438
333,8	2,9988	5,6257	5,5522
334	2,9395	5,6294	5,5559
334,3	2,8713	5,6301	5,5566
334,5	2,8578	5,6368	5,5633
334,8	2,8678	5,6426	5,5691
335,1	2,8053	5,6438	5,5702
335,3	2,7679	5,6473	5,5738
335,6	2,7598	5,652	5,5785
335,9	2,7531	5,6576	5,5841
336,1	2,7259	5,6622	5,5887
336,4	2,6986	5,6667	5,5932
336,7	2,6627	5,6716	5,5981
336,9	2,7181	5,6828	5,6093
337,2	2,5981	5,6829	5,6094
337,4	2,5412	5,683	5,6095
337,7	2,5018	5,6835	5,61
338	2,5505	5,6922	5,6187
338,2	2,5093	5,6953	5,6218
338,5	2,498	5,7009	5,6273
338,8	2,4619	5,7061	5,6326
339	2,4239	5,7093	5,6358
339,3	2,4071	5,7158	5,6423
339,6	2,3838	5,7233	5,6498
339,8	2,3406	5,725	5,6515
340,1	2,3047	5,7286	5,6551
340,3	2,2899	5,733	5,6595
340,6	2,2952	5,7394	5,6659
340,9	2,2369	5,7399	5,6664
341,1	2,2172	5,7433	5,6698
341,4	2,2185	5,75	5,6765
341,7	2,1977	5,7538	5,6803
341,9	2,1754	5,7591	5,6856
342,2	2,1613	5,7634	5,6899
342,5	2,1583	5,7725	5,699
342,7	2,1077	5,7727	5,6992
343	2,1095	5,779	5,7055
343,2	2,0769	5,7804	5,7069
343,5	2,0517	5,7859	5,7124
343,8	2,0297	5,7886	5,7151
344	2,0145	5,793	5,7195
344,3	2,0081	5,7977	5,7242
344,6	1,9679	5,8016	5,7281
344,8	1,9647	5,8079	5,7344
345,1	1,9505	5,8127	5,7392
345,4	1,9715	5,8239	5,7504
345,6	1,8621	5,8248	5,7513
345,9	1,8131	5,8249	5,7514
346,1	1,7863	5,8249	5,7514
346,4	1,824	5,8337	5,7602
346,7	1,7935	5,8368	5,7633
346,9	1,7698	5,8406	5,767
347,2	1,748	5,8474	5,7739
347,5	1,7232	5,8508	5,7773
347,7	1,7074	5,8554	5,7818
348	1,7112	5,86	5,7864
348,3	1,7107	5,8697	5,7962
348,5	1,6472	5,8698	5,7963
348,8	1,6068	5,87	5,7965
349	1,6179	5,8783	5,8048
349,3	1,6084	5,8815	5,808
349,6	1,5965	5,8848	5,8113
349,8	1,578	5,8891	5,8156
350,1	1,5593	5,895	5,8215
350,4	1,5408	5,8991	5,8256
350,6	1,5367	5,9031	5,8296
350,9	1,5341	5,9085	5,835
351,2	1,5472	5,918	5,8445
351,4	1,4915	5,9188	5,8453
351,7	1,4545	5,919	5,8454
351,9	1,4976	5,9295	5,856
352,2	1,4457	5,9296	5,8561
352,5	1,4149	5,9326	5,859
352,7	1,4062	5,9377	5,8642
353	1,3975	5,9435	5,87
353,3	1,3851	5,9464	5,8729
353,5	1,3731	5,9526	5,8791
353,8	1,3631	5,9577	5,8842
354,1	1,3724	5,968	5,8945
354,3	1,3259	5,968	5,8945
354,6	1,2833	5,968	5,8945
354,8	1,2884	5,9728	5,8993
355,1	1,2866	5,9786	5,905
355,4	1,2788	5,9821	5,9086
355,6	1,2704	5,986	5,9125
355,9	1,2569	5,991	5,9175
356,2	1,2493	5,9963	5,9228
356,4	1,2473	6,0009	5,9274
356,7	1,2384	6,0055	5,932
357	1,2587	6,0174	5,9439
357,2	1,2081	6,0175	5,944
357,5	1,1704	6,0176	5,9441
357,7	1,1515	6,0177	5,9442
358	1,188	6,0269	5,9534
358,3	1,1631	6,0301	5,9566
358,5	1,1468	6,0356	5,9621
358,8	1,1399	6,0401	5,9666
359,1	1,1336	6,0439	5,9704
359,3	1,1342	6,049	5,9755
359,6	1,1475	6,0581	5,9846
359,9	1,1185	6,0591	5,9856
360,1	1,1052	6,0603	5,9868
360,4	1,0986	6,0669	5,9934
360,6	1,0903	6,0713	5,9978
360,9	1,09	6,0748	6,0013
361,2	1,0806	6,0777	6,0042
361,4	1,0765	6,0835	6,01
361,7	1,0737	6,0875	6,014
362	1,0818	6,0924	6,0189
362,2	1,0871	6,0974	6,0239
362,5	1,0952	6,1059	6,0324
362,8	1,0869	6,11	6,0365
363	1,0622	6,1101	6,0366
363,3	1,0502	6,1112	6,0377
363,5	1,0726	6,1196	6,0461
363,8	1,0777	6,1223	6,0488
364,1	1,0827	6,1264	6,0528
364,3	1,0878	6,1327	6,0592
364,6	1,0759	6,1366	6,0631
364,9	1,0779	6,1408	6,0673
365,1	1,0799	6,1458	6,0723
365,4	1,1423	6,1597	6,0862
365,7	1,1111	6,1597	6,0862
365,9	1,0797	6,1598	6,0863
366,2	1,0754	6,1598	6,0863
366,4	1,0779	6,1646	6,0911
366,7	1,1056	6,1702	6,0967
367	1,1066	6,1746	6,1011
367,2	1,1177	6,182	6,1085
367,5	1,1232	6,1837	6,1102
367,8	1,127	6,1893	6,1158
368	1,1351	6,1944	6,1209
368,3	1,1828	6,2058	6,1323
368,6	1,1602	6,2059	6,1323
368,8	1,1375	6,2059	6,1324
369,1	1,138	6,2069	6,1334
369,3	1,1801	6,216	6,1425
369,6	1,1862	6,2188	6,1453
369,9	1,1929	6,2238	6,1503
370,1	1,202	6,2287	6,1552
370,4	1,2111	6,2335	6,1599
370,7	1,2218	6,2382	6,1647
370,9	1,2341	6,2428	6,1693
371,2	1,2973	6,2547	6,1812
371,5	1,2691	6,2547	6,1812
371,7	1,2564	6,2547	6,1812
372	1,2453	6,2547	6,1812
372,2	1,3054	6,2645	6,191
372,5	1,3122	6,2671	6,1936
372,8	1,3224	6,2722	6,1987
373	1,3434	6,2769	6,2034
373,3	1,3643	6,2815	6,208
373,6	1,3829	6,2855	6,212
373,8	1,4169	6,2949	6,2214
374,1	1,4035	6,2956	6,222
374,4	1,4285	6,3007	6,2272
374,6	1,4413	6,3045	6,231
374,9	1,4737	6,3098	6,2363
375,1	1,4769	6,3127	6,2392
375,4	1,48	6,3156	6,2421
375,7	1,5007	6,3209	6,2474
375,9	1,5131	6,3254	6,2519
376,2	1,5449	6,3292	6,2557
376,5	1,5639	6,3358	6,2623
376,7	1,6466	6,3461	6,2726
377	1,6291	6,347	6,2735
377,3	1,6117	6,3471	6,2735
377,5	1,6088	6,3506	6,2771
377,8	1,6536	6,3576	6,2841
378	1,6705	6,3602	6,2867
378,3	1,6906	6,3638	6,2903
378,6	1,7074	6,3692	6,2957
378,8	1,7302	6,3733	6,2997
379,1	1,7438	6,3787	6,3052
379,4	1,7691	6,3836	6,31
379,6	1,8587	6,3963	6,3227
379,9	1,8446	6,3963	6,3228
380,2	1,8305	6,3964	6,3229
380,4	1,8164	6,3965	6,323
380,7	1,8835	6,4061	6,3326
380,9	1,8857	6,4083	6,3348
381,2	1,8934	6,412	6,3385
381,5	1,9136	6,4179	6,3444
381,7	1,9314	6,4222	6,3487
382	1,9545	6,4253	6,3518
382,3	1,9924	6,4315	6,358
382,5	2,0312	6,439	6,3655
382,8	2,0087	6,4395	6,366
383,1	2,0587	6,4465	6,373
383,3	2,0726	6,4493	6,3758
383,6	2,0691	6,4533	6,3798
383,8	2,0668	6,4555	6,382
384,1	2,1026	6,4613	6,3878
384,4	2,1274	6,4655	6,3919
384,6	2,1364	6,4702	6,3967
384,9	2,1504	6,4739	6,4004
385,2	2,185	6,4798	6,4063
385,4	2,2469	6,4886	6,4151
385,7	2,2167	6,4892	6,4157
386	2,1973	6,491	6,4175
386,2	2,2454	6,4983	6,4248
386,5	2,2448	6,501	6,4275
386,7	2,2317	6,5041	6,4306
387	2,2339	6,509	6,4355
387,3	2,2091	6,5147	6,4412
387,5	0,054587	6,5181	6,4445
387,8	0,054405	6,5228	6,4493
388,1	0,054222	6,5279	6,4544
388,3	0,054039	6,5396	6,4661
388,6	0,053857	6,5397	6,4662
388,9	0,053674	6,5397	6,4662
389,1	0,053491	6,5398	6,4662
389,4	0,053309	6,5499	6,4764
389,6	0,053126	6,5522	6,4787
389,9	0,052943	6,557	6,4835
390,2	0,05276	6,5628	6,4893
390,4	0,052578	6,5663	6,4928
390,7	0,053322	6,5719	6,4984
391	0,054846	6,5765	6,5029
391,2	0,05637	6,5884	6,5149
391,5	0,048829	6,5889	6,5153
391,8	0,057217	6,5889	6,5154
392	0,056808	6,5889	6,5154
392,3	0,056398	6,5978	6,5242
392,5	0,055988	6,6013	6,5278
392,6	0,055876