File: Tests de traction/Fichiers source/04_07_2016/Sample_10_250N.txt
Time (s)	Load (N)	Machine Extension (mm)	Extension from Preload (mm)
0
0,2685	0,0073191	0,00010079	-0,019151
0,5369	0,47272	0,018919	-0,00033327
0,8054	0,4398	0,019506	0,00025414
1,074	0,65383	0,028268	0,0090162
1,342	0,75776	0,033268	0,014016
1,611	0,88508	0,03821	0,018958
1,879	1,169	0,048462	0,02921
2,148	1,2714	0,051565	0,032313
2,416	1,2504	0,051704	0,032451
2,685	1,2295	0,051842	0,03259
2,953	1,4402	0,06038	0,041128
3,222	1,5434	0,063943	0,044691
3,49	1,6168	0,067973	0,048721
3,758	1,7431	0,07379	0,054538
4,027	1,8704	0,078113	0,05886
4,295	1,9599	0,081967	0,062715
4,564	2,1598	0,089377	0,070125
4,832	2,2233	0,092628	0,073376
5,101	2,3815	0,098233	0,078981
5,369	2,3854	0,10035	0,081097
5,638	2,493	0,10537	0,086116
5,906	2,6006	0,10965	0,090393
6,175	2,6486	0,11258	0,09333
6,443	2,7702	0,11721	0,097954
6,712	2,9097	0,12269	0,10343
6,98	2,9811	0,12608	0,10683
7,248	3,1351	0,13209	0,11284
7,517	3,2794	0,13873	0,11948
7,785	3,5122	0,14733	0,12808
8,054	3,4573	0,14724	0,12799
8,322	3,4072	0,14715	0,1279
8,591	3,4824	0,15106	0,13181
8,859	3,7111	0,15905	0,1398
9,128	3,7452	0,16253	0,14327
9,396	3,8434	0,16741	0,14816
9,665	3,9453	0,17175	0,1525
9,933	4,0239	0,17532	0,15607
10,2	4,1246	0,18179	0,16253
10,47	4,4012	0,19155	0,1723
10,74	4,359	0,19174	0,17249
11,01	4,3168	0,19193	0,17268
11,28	4,5395	0,20031	0,18106
11,54	4,5573	0,20355	0,1843
11,81	4,5809	0,20646	0,18721
12,08	4,6814	0,21099	0,19173
12,35	4,7973	0,21727	0,19801
12,62	4,8512	0,22118	0,20193
12,89	4,9661	0,22655	0,2073
13,15	5,0431	0,23081	0,21156
13,42	5,3536	0,24314	0,22389
13,69	5,2885	0,24316	0,22391
13,96	5,2235	0,24318	0,22393
14,23	5,1723	0,2432	0,22395
14,5	5,4109	0,25307	0,23382
14,77	5,3998	0,25582	0,23657
15,03	5,4833	0,26012	0,24087
15,3	5,5948	0,26609	0,24683
15,57	5,6319	0,26987	0,25062
15,84	5,733	0,27506	0,2558
16,11	5,808	0,27986	0,2606
16,38	6,1177	0,29214	0,27289
16,64	6,0357	0,29223	0,27298
16,91	5,9537	0,29232	0,27307
17,18	5,9111	0,29241	0,27316
17,45	6,1462	0,30265	0,2834
17,72	6,1584	0,3061	0,28685
17,99	6,1975	0,31001	0,29076
18,26	6,3058	0,31562	0,29636
18,52	6,3458	0,31939	0,30014
18,79	6,4065	0,32349	0,30424
19,06	6,6835	0,3362	0,31695
19,33	6,608	0,33642	0,31716
19,6	6,5326	0,33695	0,3177
19,87	6,4882	0,33706	0,31781
20,13	6,8301	0,349	0,32975
20,4	6,7449	0,34987	0,33061
20,67	6,7786	0,35404	0,33479
20,94	6,8421	0,36015	0,3409
21,21	6,899	0,3644	0,34515
21,48	6,9925	0,36925	0,35
21,75	7,0514	0,37379	0,35454
22,01	7,2603	0,38499	0,36574
22,28	7,1753	0,38507	0,36581
22,55	7,0903	0,38514	0,36589
22,82	7,1378	0,38952	0,37027
23,09	7,2911	0,39604	0,37679
23,36	7,2449	0,39879	0,37954
23,62	7,3048	0,4042	0,38495
23,89	7,4036	0,40917	0,38991
24,16	7,4806	0,41382	0,39457
24,43	7,53	0,41836	0,3991
24,7	7,5719	0,42328	0,40403
24,97	7,8428	0,43583	0,41658
25,24	7,7263	0,43588	0,41662
25,5	7,623	0,43592	0,41667
25,77	7,5831	0,43596	0,41671
26,04	7,7786	0,44477	0,42552
26,31	7,7754	0,44753	0,42828
26,58	7,8434	0,45365	0,43439
26,85	7,8948	0,45878	0,43953
27,11	7,9436	0,4632	0,44395
27,38	7,9965	0,46774	0,44849
27,65	8,092	0,47409	0,45484
27,92	8,1513	0,47977	0,46052
28,19	8,0669	0,47995	0,4607
28,46	8,1859	0,48677	0,46752
28,73	8,2061	0,48963	0,47038
28,99	8,1877	0,49323	0,47398
29,26	8,2217	0,49671	0,47746
29,53	8,3384	0,50417	0,48491
29,8	8,3396	0,50694	0,48769
30,07	8,3542	0,51108	0,49183
30,34	8,5529	0,52073	0,50148
30,6	8,5717	0,5252	0,50595
30,87	8,4869	0,52532	0,50607
31,14	8,402	0,52544	0,50619
31,41	8,6269	0,53708	0,51782
31,68	8,5912	0,53766	0,51841
31,95	8,5922	0,54164	0,52238
32,22	8,6906	0,54842	0,52916
32,48	8,7365	0,55247	0,53322
32,75	8,7684	0,55678	0,53753
33,02	8,7728	0,56096	0,54171
33,29	9,0755	0,57415	0,5549
33,56	8,9499	0,57425	0,555
33,83	8,8265	0,57435	0,5551
34,09	8,7708	0,57445	0,55519
34,36	8,9807	0,58508	0,56583
34,63	8,9635	0,58791	0,56866
34,9	8,9579	0,59132	0,57207
35,17	9,0443	0,59717	0,57792
35,44	9,0389	0,60124	0,58199
35,71	9,1006	0,60623	0,58698
35,97	9,1399	0,61105	0,5918
36,24	9,3106	0,62254	0,60328
36,51	9,0821	0,62264	0,60339
36,78	8,7514	0,62274	0,60349
37,05	8,6998	0,6274	0,60815
37,32	8,7988	0,63384	0,61458
37,58	8,7193	0,63608	0,61683
37,85	8,7763	0,6408	0,62155
38,12	8,8279	0,64668	0,62742
38,39	8,8701	0,65128	0,63203
38,66	8,9082	0,65589	0,63664
38,93	8,9463	0,66059	0,64134
39,2	9,0885	0,66879	0,64954
39,46	8,9913	0,66889	0,64964
39,73	8,9383	0,6718	0,65255
40	9,1001	0,67998	0,66073
40,27	9,0793	0,68177	0,66252
40,54	9,0596	0,68559	0,66634
40,81	9,1019	0,68992	0,67067
41,07	9,1863	0,69617	0,67692
41,34	9,2201	0,70031	0,68106
41,61	9,2538	0,7048	0,68555
41,88	9,2876	0,70952	0,69027
42,15	9,5026	0,72086	0,70161
42,42	9,3558	0,72091	0,70166
42,69	9,235	0,72096	0,7017
42,95	9,2005	0,72213	0,70287
43,22	9,3911	0,73089	0,71164
43,49	9,365	0,73469	0,71544
43,76	9,4657	0,7404	0,72115
44,03	9,4468	0,74348	0,72423
44,3	9,4757	0,74914	0,72989
44,56	9,5243	0,75407	0,73482
44,83	9,7133	0,76371	0,74446
45,1	9,599	0,76501	0,74576
45,37	9,4846	0,76516	0,74591
45,64	9,5818	0,77125	0,75199
45,91	9,6622	0,77664	0,75738
46,18	9,6065	0,7797	0,76045
46,44	9,6465	0,78418	0,76493
46,71	9,7127	0,78953	0,77028
46,98	9,709	0,793	0,77374
47,25	9,7751	0,79887	0,77961
47,52	9,8108	0,80395	0,7847
47,79	10,035	0,81515	0,79589
48,05	9,8836	0,81515	0,79589
48,32	9,7726	0,81515	0,7959
48,59	9,7192	0,81656	0,79731
48,86	9,9414	0,82549	0,80624
49,13	9,8912	0,82855	0,8093
49,4	9,9312	0,83258	0,81333
49,67	9,9944	0,83828	0,81903
49,93	9,983	0,84302	0,82377
50,2	9,9941	0,84691	0,82766
50,47	10,286	0,85978	0,84053
50,74	10,152	0,85999	0,84074
51,01	10,018	0,8602	0,84095
51,28	9,9311	0,86102	0,84177
51,54	10,158	0,87103	0,85178
51,81	10,146	0,87418	0,85493
52,08	10,145	0,87735	0,8581
52,35	10,173	0,88268	0,86343
52,62	10,229	0,88767	0,86841
52,89	10,228	0,89188	0,87263
53,16	10,322	0,89788	0,87863
53,42	10,58	0,91077	0,89151
53,69	10,401	0,91052	0,89127
53,96	10,27	0,91027	0,89102
54,23	10,197	0,90985	0,8906
54,5	10,419	0,92115	0,9019
54,77	10,388	0,92215	0,9029
55,03	10,41	0,92727	0,90802
55,3	10,417	0,93286	0,91361
55,57	10,451	0,93704	0,91779
55,84	10,484	0,9418	0,92254
56,11	10,517	0,94714	0,92789
56,38	10,588	0,95327	0,93402
56,65	10,538	0,95543	0,93617
56,91	10,575	0,95999	0,94074
57,18	10,667	0,96707	0,94782
57,45	10,594	0,96833	0,94907
57,72	10,55	0,97171	0,95245
57,99	10,613	0,97636	0,95711
58,26	10,688	0,98212	0,96287
58,52	10,697	0,98613	0,96688
58,79	10,704	0,9905	0,97125
59,06	10,82	0,99803	0,97878
59,33	10,905	1,0047	0,98542
59,6	10,776	1,0047	0,98546
59,87	10,652	1,0053	0,98609
60,14	10,897	1,0151	0,9958
60,4	10,759	1,0159	0,99669
60,67	10,792	1,0203	1,0011
60,94	10,925	1,028	1,0087
61,21	10,893	1,0311	1,0119
61,48	10,918	1,0357	1,0164
61,75	10,944	1,0407	1,0215
62,01	11,194	1,0523	1,0331
62,28	11,062	1,0524	1,0332
62,55	10,921	1,0525	1,0333
62,82	10,972	1,0576	1,0384
63,09	11,014	1,0618	1,0426
63,36	10,983	1,0652	1,046
63,63	11,015	1,071	1,0517
63,89	11,099	1,076	1,0567
64,16	11,093	1,0794	1,0601
64,43	11,137	1,0851	1,0659
64,7	11,145	1,0907	1,0714
64,97	11,365	1,1005	1,0812
65,24	11,197	1,1007	1,0815
65,5	11,029	1,1009	1,0817
65,77	11,043	1,104	1,0848
66,04	11,166	1,1104	1,0911
66,31	11,113	1,1148	1,0955
66,58	11,174	1,1208	1,1016
66,85	11,186	1,1256	1,1063
67,12	11,197	1,1301	1,1108
67,38	11,209	1,1347	1,1154
67,65	11,313	1,1418	1,1226
67,92	11,326	1,1478	1,1286
68,19	11,109	1,1478	1,1286
68,46	10,978	1,1479	1,1286
68,73	11,145	1,1573	1,138
68,99	11,031	1,1603	1,141
69,26	10,985	1,1637	1,1445
69,53	10,961	1,1707	1,1515
69,8	10,891	1,174	1,1547
70,07	10,834	1,1786	1,1594
70,34	10,802	1,1855	1,1662
70,61	10,333	1,1892	1,17
70,87	9,9407	1,1956	1,1764
71,14	9,5084	1,1982	1,1789
71,41	9,3973	1,1996	1,1803
71,68	9,5288	1,2057	1,1865
71,95	9,4918	1,2086	1,1893
72,22	9,5433	1,2144	1,1952
72,48	9,608	1,2183	1,199
72,75	9,6647	1,2239	1,2047
73,02	9,7209	1,2285	1,2092
73,29	9,8472	1,2352	1,2159
73,56	9,8643	1,2394	1,2201
73,83	9,9312	1,2441	1,2248
74,1	9,8787	1,2463	1,2271
74,36	10,084	1,2536	1,2344
74,63	9,9667	1,2546	1,2354
74,9	9,9696	1,2582	1,2389
75,17	10,03	1,2639	1,2446
75,44	10,113	1,2677	1,2484
75,71	10,182	1,2732	1,2539
75,97	10,207	1,2779	1,2586
76,24	10,48	1,2893	1,2701
76,51	10,342	1,2897	1,2704
76,78	10,204	1,29	1,2707
77,05	10,129	1,2909	1,2716
77,32	10,349	1,2999	1,2807
77,59	10,314	1,3028	1,2835
77,85	10,346	1,307	1,2878
78,12	10,451	1,3132	1,2939
78,39	10,432	1,3162	1,297
78,66	10,511	1,322	1,3027
78,93	10,579	1,3276	1,3083
79,2	10,615	1,3333	1,314
79,47	10,587	1,3369	1,3177
79,73	10,609	1,3403	1,321
80	10,641	1,345	1,3257
80,27	10,624	1,3484	1,3291
80,54	10,626	1,3524	1,3332
80,81	10,695	1,3574	1,3382
81,08	10,714	1,3619	1,3427
81,34	10,708	1,3663	1,3471
81,61	10,779	1,3715	1,3523
81,88	10,844	1,3766	1,3574
82,15	10,972	1,3843	1,3651
82,42	10,832	1,3845	1,3653
82,69	10,692	1,3847	1,3655
82,96	10,948	1,3957	1,3765
83,22	10,87	1,3965	1,3772
83,49	10,847	1,4008	1,3816
83,76	10,943	1,4073	1,388
84,03	10,907	1,4103	1,3911
84,3	10,983	1,4163	1,3971
84,57	11,009	1,421	1,4017
84,83	11,035	1,4257	1,4065
85,1	11,2	1,4346	1,4154
85,37	11,019	1,4348	1,4155
85,64	10,903	1,4349	1,4157
85,91	11,118	1,4436	1,4243
86,18	11,046	1,4458	1,4265
86,45	11,047	1,4502	1,431
86,71	11,126	1,4553	1,4361
86,98	11,129	1,4606	1,4414
87,25	11,178	1,4645	1,4453
87,52	11,34	1,4736	1,4543
87,79	11,218	1,4749	1,4556
88,06	11,354	1,4819	1,4626
88,32	11,253	1,4829	1,4637
88,59	11,335	1,4908	1,4715
88,86	11,27	1,4916	1,4723
89,13	11,226	1,495	1,4758
89,4	11,278	1,5007	1,4814
89,67	11,303	1,5052	1,486
89,94	11,371	1,5103	1,4911
90,2	11,403	1,5154	1,4961
90,47	11,496	1,5219	1,5026
90,74	11,406	1,5245	1,5053
91,01	11,405	1,5282	1,5089
91,28	11,467	1,5344	1,5151
91,55	11,446	1,5369	1,5176
91,81	11,388	1,5401	1,5209
92,08	11,422	1,544	1,5248
92,35	11,505	1,5511	1,5318
92,62	11,539	1,5554	1,5362
92,89	11,561	1,5597	1,5405
93,16	11,582	1,5647	1,5454
93,43	11,648	1,5708	1,5515
93,69	11,725	1,5773	1,558
93,96	11,57	1,5774	1,5581
94,23	11,417	1,5777	1,5584
94,5	11,638	1,5866	1,5674
94,77	11,578	1,5893	1,5701
95,04	11,599	1,5945	1,5752
95,3	11,619	1,599	1,5798
95,57	11,644	1,6036	1,5844
95,84	11,694	1,6085	1,5892
96,11	11,721	1,6135	1,5942
96,38	11,924	1,6225	1,6033
96,65	11,775	1,6227	1,6035
96,92	11,626	1,623	1,6037
97,18	11,817	1,6314	1,6122
97,45	11,727	1,634	1,6147
97,72	11,759	1,6377	1,6185
97,99	11,895	1,6452	1,6259
98,26	11,818	1,6473	1,628
98,53	11,833	1,653	1,6337
98,79	11,911	1,6584	1,6392
99,06	12,075	1,6674	1,6482
99,33	11,915	1,6676	1,6483
99,6	11,756	1,6677	1,6484
99,87	11,976	1,6783	1,6591
100,1	11,903	1,6799	1,6606
100,4	11,877	1,6833	1,664
100,7	11,893	1,6874	1,6681
100,9	12,005	1,6937	1,6744
101,2	12,019	1,6982	1,679
101,5	12,032	1,7027	1,6835
101,7	12,037	1,7072	1,688
102	12,332	1,7195	1,7003
102,3	12,163	1,7195	1,7003
102,6	11,994	1,7196	1,7003
102,8	11,872	1,7196	1,7003
103,1	12,077	1,7284	1,7092
103,4	12,051	1,7321	1,7128
103,6	12,061	1,7368	1,7175
103,9	12,142	1,7427	1,7235
104,2	12,118	1,7459	1,7266
104,4	12,182	1,7519	1,7327
104,7	12,326	1,7604	1,7412
105	12,232	1,762	1,7428
105,2	12,233	1,7666	1,7473
105,5	12,229	1,7699	1,7507
105,8	12,272	1,7754	1,7562
106	12,194	1,7772	1,758
106,3	12,196	1,7812	1,7619
106,6	12,265	1,7871	1,7678
106,8	12,214	1,7906	1,7713
107,1	12,299	1,7963	1,777
107,4	12,335	1,8013	1,7821
107,7	12,391	1,8074	1,7882
107,9	12,349	1,8106	1,7913
108,2	12,394	1,8161	1,7968
108,5	12,325	1,8184	1,7992
108,7	12,381	1,8237	1,8044
109	12,302	1,8259	1,8066
109,3	12,35	1,8307	1,8115
109,5	12,394	1,8362	1,817
109,8	12,398	1,8411	1,8219
110,1	12,402	1,8455	1,8262
110,3	12,524	1,8517	1,8324
110,6	12,803	1,8635	1,8442
110,9	12,634	1,8635	1,8443
111,1	12,464	1,8636	1,8443
111,4	12,315	1,8637	1,8444
111,7	12,564	1,8731	1,8538
111,9	12,468	1,876	1,8567
112,2	12,516	1,8807	1,8614
112,5	12,555	1,8856	1,8663
112,8	12,562	1,8896	1,8704
113	12,619	1,8951	1,8758
113,3	12,651	1,9005	1,8813
113,6	12,821	1,9088	1,8895
113,8	12,647	1,9088	1,8895
114,1	12,496	1,9088	1,8896
114,4	12,752	1,9191	1,8999
114,6	12,64	1,9203	1,901
114,9	12,62	1,9247	1,9055
115,2	12,689	1,9309	1,9116
115,4	12,69	1,9346	1,9154
115,7	12,716	1,9394	1,9201
116	12,754	1,9444	1,9252
116,2	12,866	1,9512	1,9319
116,5	12,792	1,9538	1,9346
116,8	12,843	1,9594	1,9401
117	12,708	1,9601	1,9409
117,3	12,865	1,9675	1,9483
117,6	12,74	1,9693	1,9501
117,9	12,753	1,9737	1,9545
118,1	12,843	1,98	1,9607
118,4	12,878	1,9844	1,9651
118,7	12,906	1,9888	1,9696
118,9	12,93	1,9937	1,9745
119,2	13,168	2,0044	1,9852
119,5	13,017	2,0046	1,9853
119,7	12,866	2,0048	1,9855
120	12,866	2,0096	1,9904
120,3	12,983	2,0159	1,9966
120,5	12,935	2,0195	2,0003
120,8	12,93	2,0235	2,0043
121,1	12,976	2,0289	2,0097
121,3	12,991	2,0328	2,0136
121,6	13,084	2,0386	2,0193
121,9	13,108	2,0445	2,0252
122,2	13,106	2,0486	2,0294
122,4	13,163	2,054	2,0348
122,7	13,072	2,0555	2,0363
123	13,177	2,0624	2,0431
123,2	13,077	2,0638	2,0445
123,5	13,091	2,0682	2,0489
123,8	13,122	2,0734	2,0541
124	13,135	2,0774	2,0581
124,3	13,218	2,0823	2,0631
124,6	13,234	2,0874	2,0681
124,8	13,455	2,0982	2,079
125,1	13,341	2,0997	2,0805
125,4	13,176	2,0998	2,0806
125,6	13,185	2,1043	2,085
125,9	13,285	2,1097	2,0904
126,2	13,23	2,1129	2,0937
126,4	13,229	2,1162	2,097
126,7	13,32	2,123	2,1037
127	13,332	2,1276	2,1084
127,3	13,344	2,1322	2,113
127,5	13,37	2,1372	2,118
127,8	13,445	2,1434	2,1242
128,1	13,394	2,1462	2,127
128,3	13,322	2,149	2,1298
128,6	13,374	2,1541	2,1348
128,9	13,389	2,1589	2,1397
129,1	13,315	2,1612	2,1419
129,4	13,405	2,1675	2,1482
129,7	13,421	2,1716	2,1524
129,9	13,453	2,1763	2,1571
130,2	13,471	2,1812	2,162
130,5	13,565	2,1886	2,1694
130,7	13,615	2,194	2,1748
131	13,452	2,194	2,1748
131,3	13,416	2,1966	2,1773
131,5	13,534	2,204	2,1847
131,8	13,466	2,2072	2,1879
132,1	13,48	2,2103	2,1911
132,4	13,604	2,2179	2,1986
132,6	13,504	2,22	2,2007
132,9	13,566	2,2254	2,2062
133,2	13,755	2,2341	2,2148
133,4	13,77	2,2395	2,2203
133,7	13,581	2,2397	2,2204
134	13,441	2,2398	2,2205
134,2	13,719	2,2501	2,2308
134,5	13,624	2,252	2,2328
134,8	13,573	2,2556	2,2364
135	13,601	2,2603	2,2411
135,3	13,696	2,2662	2,2469
135,6	13,715	2,2709	2,2516
135,8	13,733	2,2756	2,2563
136,1	13,752	2,2803	2,261
136,4	13,973	2,2897	2,2705
136,6	13,8	2,2898	2,2706
136,9	13,628	2,2899	2,2706
137,2	13,821	2,2986	2,2793
137,5	13,76	2,3005	2,2812
137,7	13,72	2,3047	2,2854
138	13,786	2,3108	2,2915
138,3	13,827	2,3156	2,2964
138,5	13,804	2,3188	2,2996
138,8	13,95	2,326	2,3067
139,1	14,062	2,3339	2,3146
139,3	13,907	2,334	2,3147
139,6	13,884	2,3386	2,3194
139,9	13,875	2,3413	2,322
140,1	13,997	2,3477	2,3284
140,4	13,838	2,3493	2,3301
140,7	13,898	2,3549	2,3356
140,9	13,935	2,3604	2,3411
141,2	13,961	2,3644	2,3452
141,5	14,001	2,3693	2,3501
141,7	14,057	2,3741	2,3548
142	14,125	2,3808	2,3616
142,3	13,959	2,381	2,3617
142,6	14,043	2,3874	2,3681
142,8	14,041	2,3924	2,3732
143,1	14,05	2,3951	2,3759
143,4	14,005	2,3993	2,3801
143,6	14,068	2,4039	2,3846
143,9	14,073	2,4084	2,3892
144,2	14,157	2,414	2,3947
144,4	14,141	2,4185	2,3993
144,7	14,155	2,4231	2,4038
145	14,445	2,434	2,4148
145,2	14,241	2,4341	2,4149
145,5	14,038	2,4342	2,415
145,8	14,012	2,4371	2,4178
146	14,171	2,4447	2,4255
146,3	14,145	2,4487	2,4295
146,6	14,19	2,4545	2,4352
146,8	14,191	2,458	2,4388
147,1	14,205	2,4629	2,4436
147,4	14,262	2,468	2,4487
147,7	14,451	2,477	2,4577
147,9	14,295	2,4773	2,4581
148,2	14,138	2,4787	2,4594
148,5	14,279	2,4858	2,4665
148,7	14,353	2,4915	2,4723
149	14,242	2,4927	2,4735
149,3	14,213	2,4977	2,4785
149,5	14,291	2,5029	2,4837
149,8	14,288	2,507	2,4878
150,1	14,32	2,5115	2,4923
150,3	14,385	2,5167	2,4974
150,6	14,465	2,5243	2,505
150,9	14,385	2,5265	2,5072
151,1	14,387	2,5305	2,5113
151,4	14,409	2,5352	2,5159
151,7	14,441	2,5404	2,5211
151,9	14,355	2,5423	2,523
152,2	14,374	2,547	2,5278
152,5	14,449	2,5528	2,5336
152,8	14,464	2,5576	2,5384
153	14,478	2,5622	2,543
153,3	14,492	2,5668	2,5475
153,6	14,717	2,5772	2,5579
153,8	14,518	2,5772	2,558
154,1	14,335	2,5772	2,558
154,4	14,394	2,5813	2,5621
154,6	14,489	2,5882	2,5689
154,9	14,432	2,592	2,5727
155,2	14,467	2,5961	2,5769
155,4	14,534	2,602	2,5827
155,7	14,495	2,606	2,5867
156	14,583	2,6118	2,5925
156,2	14,695	2,6193	2,6
156,5	14,695	2,6238	2,6046
156,8	14,5	2,6239	2,6047
157,1	14,388	2,6258	2,6065
157,3	14,546	2,6344	2,6152
157,6	14,404	2,6356	2,6163
157,9	14,527	2,6403	2,6211
158,1	14,528	2,6466	2,6274
158,4	14,529	2,6497	2,6304
158,7	14,571	2,6556	2,6364
158,9	14,611	2,6603	2,641
159,2	14,814	2,6696	2,6504
159,5	14,607	2,6698	2,6506
159,7	14,439	2,67	2,6508
160	14,643	2,6787	2,6594
160,3	14,582	2,6822	2,663
160,5	14,52	2,6855	2,6662
160,8	14,547	2,6898	2,6706
161,1	14,537	2,6959	2,6767
161,3	14,524	2,7004	2,6811
161,6	14,508	2,704	2,6847
161,9	14,679	2,7134	2,6941
162,2	14,513	2,7139	2,6946
162,4	14,657	2,7223	2,703
162,7	14,52	2,7226	2,7034
163	14,611	2,7292	2,71
163,2	14,477	2,7301	2,7109
163,5	14,451	2,7338	2,7146
163,8	14,499	2,7397	2,7205
164	14,529	2,745	2,7258
164,3	14,559	2,7498	2,7305
164,6	14,59	2,7545	2,7353
164,8	14,913	2,7668	2,7476
165,1	14,732	2,7669	2,7476
165,4	14,553	2,7669	2,7477
165,6	14,444	2,767	2,7477
165,9	14,675	2,7762	2,7569
166,2	14,639	2,7791	2,7599
166,4	14,66	2,7844	2,7652
166,7	14,75	2,7899	2,7706
167	14,743	2,7936	2,7744
167,3	14,784	2,7989	2,7797
167,5	15,031	2,8086	2,7894
167,8	14,984	2,8118	2,7925
168,1	14,82	2,8119	2,7926
168,3	14,657	2,812	2,7927
168,6	14,928	2,8224	2,8032
168,9	14,83	2,8237	2,8044
169,1	14,81	2,8283	2,8091
169,4	14,945	2,8354	2,8161
169,7	14,967	2,8398	2,8206
169,9	14,99	2,8442	2,825
170,2	15,013	2,8487	2,8294
170,5	15,225	2,8586	2,8394
170,7	15,105	2,8603	2,8411
171	14,928	2,8605	2,8412
171,3	14,795	2,8612	2,842
171,5	15,1	2,8712	2,852
171,8	14,986	2,874	2,8548
172,1	14,958	2,8774	2,8581
172,4	15,058	2,8832	2,8639
172,6	15,046	2,8877	2,8684
172,9	15,134	2,8926	2,8733
173,2	15,133	2,8985	2,8793
173,4	15,476	2,9099	2,8907
173,7	15,272	2,9099	2,8906
174	15,074	2,9099	2,8906
174,2	14,957	2,9098	2,8906
174,5	15,261	2,9204	2,9012
174,8	15,174	2,9233	2,9041
175	15,187	2,927	2,9077
175,3	15,218	2,9332	2,914
175,6	15,254	2,9378	2,9185
175,8	15,273	2,9423	2,923
176,1	15,291	2,9468	2,9276
176,4	15,566	2,9575	2,9382
176,6	15,368	2,9578	2,9386
176,9	15,201	2,9579	2,9387
177,2	15,089	2,9587	2,9394
177,5	15,343	2,9685	2,9492
177,7	15,281	2,9719	2,9527
178	15,325	2,9761	2,9568
178,3	15,382	2,9824	2,9631
178,5	15,372	2,9869	2,9676
178,8	15,364	2,9904	2,9712
179,1	15,75	3,004	2,9847
179,3	15,544	3,0039	2,9846
179,6	15,348	3,0035	2,9843
179,9	15,236	3,0036	2,9844
180,1	15,512	3,0151	2,9959
180,4	15,434	3,0169	2,9976
180,7	15,404	3,0206	3,0013
180,9	15,551	3,0273	3,008
181,2	15,48	3,0302	3,011
181,5	15,552	3,0361	3,0169
181,7	15,587	3,0413	3,0221
182	15,721	3,0487	3,0294
182,3	15,569	3,0489	3,0296
182,6	15,584	3,0535	3,0342
182,8	15,651	3,06	3,0407
183,1	15,632	3,0626	3,0434
183,4	15,545	3,0659	3,0467
183,6	15,575	3,0711	3,0519
183,9	15,64	3,0761	3,0569
184,2	15,671	3,0802	3,0609
184,4	15,701	3,0851	3,0658
184,7	15,73	3,0899	3,0707
185	15,899	3,0988	3,0796
185,2	15,732	3,0989	3,0796
185,5	15,624	3,1011	3,0818
185,8	15,83	3,1085	3,0892
186	15,737	3,1107	3,0915
186,3	15,705	3,1152	3,0959
186,6	15,709	3,1191	3,0998
186,9	15,822	3,1253	3,1061
187,1	15,843	3,13	3,1107
187,4	15,864	3,1346	3,1154
187,7	15,935	3,1406	3,1214
187,9	16,033	3,1478	3,1285
188,2	15,855	3,1479	3,1287
188,5	15,715	3,1482	3,1289
188,7	15,91	3,1572	3,138
189	15,876	3,1605	3,1412
189,3	15,861	3,1637	3,1445
189,5	15,931	3,1691	3,1498
189,8	15,961	3,1742	3,1549
190,1	15,936	3,1784	3,1592
190,3	16,044	3,1848	3,1655
190,6	16,2	3,1933	3,174
190,9	16,031	3,1933	3,1741
191,1	15,908	3,1947	3,1754
191,4	16,084	3,2034	3,1842
191,7	16,042	3,2054	3,1861
192	15,966	3,209	3,1897
192,2	16	3,2142	3,195
192,5	16,06	3,2191	3,1999
192,8	16,098	3,224	3,2048
193	16,117	3,2285	3,2093
193,3	16,12	3,2332	3,214
193,6	16,432	3,2445	3,2252
193,8	16,245	3,2446	3,2253
194,1	16,057	3,2446	3,2254
194,4	15,963	3,2463	3,227
194,6	16,157	3,254	3,2348
194,9	16,088	3,2574	3,2381
195,2	16,162	3,2638	3,2446
195,4	16,163	3,2689	3,2496
195,7	16,164	3,2728	3,2536
196	16,264	3,2782	3,2589
196,2	16,361	3,2849	3,2656
196,5	16,219	3,2857	3,2665
196,8	16,376	3,2942	3,2749
197,1	16,22	3,2942	3,275
197,3	16,355	3,3013	3,282
197,6	16,244	3,3027	3,2834
197,9	16,249	3,307	3,2878
198,1	16,354	3,3136	3,2944
198,4	16,281	3,3167	3,2974
198,7	16,276	3,3219	3,3026
198,9	16,309	3,3288	3,3096
199,2	16,204	3,332	3,3128
199,5	16,27	3,3379	3,3186
199,7	16,098	3,3389	3,3196
200	16,262	3,347	3,3277
200,3	16,113	3,3485	3,3292
200,5	16,078	3,3518	3,3325
200,8	16,165	3,3573	3,3381
201,1	16,204	3,3625	3,3432
201,3	16,177	3,3664	3,3471
201,6	16,263	3,3719	3,3527
201,9	16,406	3,3801	3,3608
202,2	16,295	3,3819	3,3627
202,4	16,348	3,3868	3,3676
202,7	16,309	3,3902	3,371
203	16,338	3,3949	3,3757
203,2	16,255	3,3968	3,3775
203,5	16,251	3,4004	3,3812
203,8	16,388	3,4079	3,3886
204	16,37	3,4116	3,3924
204,3	16,367	3,4158	3,3966
204,6	16,453	3,421	3,4018
204,8	16,699	3,4315	3,4123
205,1	16,508	3,4316	3,4123
205,4	16,319	3,4317	3,4124
205,6	16,405	3,4365	3,4173
205,9	16,55	3,4431	3,4238
206,2	16,463	3,4459	3,4266
206,4	16,465	3,4502	3,431
206,7	16,56	3,456	3,4367
207	16,545	3,4602	3,441
207,3	16,585	3,466	3,4468
207,5	16,624	3,4713	3,452
207,8	16,851	3,4802	3,4609
208,1	16,663	3,4803	3,461
208,3	16,482	3,4804	3,4612
208,6	16,634	3,4865	3,4672
208,9	16,675	3,4915	3,4722
209,1	16,633	3,4948	3,4755
209,4	16,666	3,5006	3,4813
209,7	16,702	3,5061	3,4868
209,9	16,734	3,5106	3,4914
210,2	16,748	3,5152	3,496
210,5	16,797	3,5194	3,5001
210,7	16,979	3,5284	3,5092
211	16,801	3,5286	3,5093
211,3	16,624	3,5287	3,5095
211,5	16,932	3,5391	3,5198
211,8	16,791	3,5395	3,5203
212,1	16,771	3,5439	3,5246
212,4	16,88	3,5499	3,5306
212,6	16,874	3,5548	3,5355
212,9	16,868	3,5586	3,5393
213,2	17,041	3,5661	3,5468
213,4	17,174	3,5743	3,555
213,7	16,981	3,5744	3,5551
214	16,797	3,5745	3,5552
214,2	16,999	3,5829	3,5636
214,5	17,033	3,586	3,5667
214,8	16,964	3,5897	3,5704
215	16,995	3,5943	3,575
215,3	17,026	3,5993	3,58
215,6	17,047	3,6037	3,5845
215,8	17,096	3,6091	3,5898
216,1	17,116	3,6133	3,5941
216,4	17,372	3,624	3,6047
216,6	17,2	3,624	3,6048
216,9	17,029	3,6241	3,6048
217,2	17,222	3,6326	3,6133
217,5	17,127	3,6341	3,6149
217,7	17,1	3,6379	3,6186
218	17,185	3,6444	3,6251
218,3	17,173	3,6477	3,6284
218,5	17,218	3,653	3,6338
218,8	17,235	3,6574	3,6381
219,1	17,567	3,6691	3,6498
219,3	17,367	3,6692	3,65
219,6	17,167	3,6694	3,6501
219,9	17,176	3,673	3,6538
220,1	17,399	3,6811	3,6618
220,4	17,276	3,6833	3,664
220,7	17,3	3,6873	3,668
220,9	17,364	3,6936	3,6744
221,2	17,363	3,6979	3,6786
221,5	17,35	3,7022	3,6829
221,8	17,476	3,7081	3,6889
222	17,494	3,7143	3,695
222,3	17,407	3,7159	3,6966
222,6	17,496	3,7219	3,7027
222,8	17,46	3,7253	3,7061
223,1	17,479	3,7303	3,711
223,4	17,433	3,7325	3,7133
223,6	17,427	3,7363	3,717
223,9	17,509	3,7423	3,723
224,2	17,479	3,7467	3,7275
224,4	17,572	3,7516	3,7324
224,7	17,669	3,7591	3,7398
225	17,741	3,7651	3,7459
225,2	17,561	3,7652	3,7459
225,5	17,448	3,7671	3,7479
225,8	17,705	3,7764	3,7571
226	17,582	3,777	3,7577
226,3	17,558	3,7814	3,7621
226,6	17,587	3,7866	3,7673
226,9	17,638	3,7925	3,7733
227,1	17,646	3,7971	3,7779
227,4	17,654	3,8017	3,7825
227,7	17,81	3,8084	3,7892
227,9	17,742	3,811	3,7917
228,2	17,714	3,8145	3,7953
228,5	17,82	3,8205	3,8012
228,7	17,738	3,8233	3,8041
229	17,736	3,827	3,8077
229,3	17,69	3,8298	3,8106
229,5	17,855	3,8372	3,8179
229,8	17,845	3,8411	3,8219
230,1	17,808	3,8445	3,8253
230,3	17,929	3,8513	3,8321
230,6	17,928	3,8561	3,8369
230,9	18,018	3,8612	3,842
231,1	17,914	3,8642	3,845
231,4	17,957	3,8691	3,8498
231,7	17,966	3,873	3,8538
232	17,922	3,8759	3,8566
232,2	17,959	3,8804	3,8612
232,5	18,02	3,8863	3,8671
232,8	18,051	3,8905	3,8712
233	18,07	3,8946	3,8753
233,3	18,489	3,9078	3,8886
233,6	18,211	3,9079	3,8886
233,8	18,009	3,9079	3,8886
234,1	17,859	3,9079	3,8887
234,4	18,155	3,9183	3,899
234,6	18,053	3,9207	3,9015
234,9	18,047	3,9237	3,9045
235,2	18,165	3,9305	3,9112
235,4	18,131	3,9345	3,9153
235,7	18,155	3,939	3,9197
236	18,226	3,9443	3,925
236,2	18,434	3,9536	3,9344
236,5	18,252	3,9544	3,9352
236,8	18,07	3,9546	3,9353
237,1	18,261	3,963	3,9438
237,3	18,173	3,9657	3,9465
237,6	18,194	3,9688	3,9496
237,9	18,213	3,9745	3,9552
238,1	18,29	3,9798	3,9605
238,4	18,254	3,9837	3,9644
238,7	18,315	3,9887	3,9694
238,9	18,406	3,9968	3,9776
239,2	18,34	3,999	3,9798
239,5	18,457	4,0053	3,9861
239,7	18,304	4,0063	3,987
240	18,343	4,0113	3,9921
240,3	18,317	4,0151	3,9958
240,5	18,319	4,0187	3,9994
240,8	18,378	4,0238	4,0046
241,1	18,36	4,0281	4,0089
241,3	18,444	4,0336	4,0144
241,6	18,47	4,0385	4,0193
241,9	18,54	4,0443	4,0251
242,2	18,666	4,0518	4,0326
242,4	18,45	4,0519	4,0326
242,7	18,291	4,0519	4,0326
243	18,584	4,0615	4,0423
243,2	18,48	4,0639	4,0446
243,5	18,479	4,0676	4,0484
243,8	18,551	4,074	4,0547
244	18,598	4,0787	4,0594
244,3	18,612	4,0832	4,064
244,6	18,626	4,0877	4,0685
244,8	18,802	4,0954	4,0761
245,1	18,744	4,099	4,0798
245,4	18,53	4,0992	4,0799
245,6	18,653	4,1048	4,0856
245,9	18,666	4,1098	4,0906
246,2	18,578	4,1125	4,0933
246,4	18,612	4,1168	4,0975
246,7	18,659	4,1232	4,104
247	18,632	4,1273	4,108
247,3	18,537	4,1311	4,1118
247,5	18,746	4,1399	4,1207
247,8	18,59	4,1435	4,1243
248,1	18,49	4,146	4,1267
248,3	18,501	4,1502	4,131
248,6	18,634	4,1568	4,1375
248,9	18,471	4,1584	4,1391
249,1	18,46	4,162	4,1428
249,4	18,488	4,1671	4,1479
249,7	18,528	4,1724	4,1531
249,9	18,541	4,1772	4,158
250,2	18,554	4,1821	4,1628
250,5	18,563	4,187	4,1677
250,7	18,692	4,1947	4,1755
251	18,45	4,1947	4,1755
251,3	18,246	4,1954	4,1761
251,5	18,48	4,2042	4,185
251,8	18,33	4,2064	4,1871
252,1	18,342	4,2116	4,1923
252,4	18,4	4,2164	4,1971
252,6	18,43	4,2211	4,2018
252,9	18,38	4,2257	4,2065
253,2	18,454	4,2318	4,2125
253,4	18,435	4,2368	4,2175
253,7	18,391	4,2416	4,2224
254	18,284	4,2446	4,2254
254,2	18,327	4,2505	4,2312
254,5	18,186	4,2532	4,2339
254,8	18,065	4,2555	4,2362
255	18,033	4,2603	4,241
255,3	18,064	4,2664	4,2472
255,6	18,04	4,2702	4,2509
255,8	17,978	4,2739	4,2546
256,1	18,192	4,2823	4,263
256,4	18,088	4,2858	4,2666
256,7	18,179	4,2911	4,2718
256,9	18,119	4,2943	4,275
257,2	18,043	4,2973	4,2781
257,5	18,131	4,3019	4,2826
257,7	18,074	4,3047	4,2855
258	18,101	4,3101	4,2908
258,3	18,188	4,315	4,2957
258,5	18,191	4,3195	4,3002
258,8	18,29	4,3248	4,3056
259,1	18,521	4,3334	4,3142
259,3	18,564	4,3385	4,3193
259,6	18,346	4,3386	4,3193
259,9	18,135	4,3386	4,3193
260,1	18,464	4,3485	4,3292
260,4	18,341	4,3504	4,3311
260,7	18,344	4,3543	4,335
260,9	18,45	4,3607	4,3415
261,2	18,483	4,3648	4,3456
261,5	18,499	4,3692	4,35
261,8	18,511	4,3738	4,3546
262	18,518	4,3792	4,3599
262,3	18,722	4,3865	4,3673
262,6	18,503	4,3866	4,3674
262,8	18,438	4,3896	4,3703
263,1	18,589	4,3959	4,3767
263,4	18,497	4,399	4,3797
263,6	18,529	4,4039	4,3846
263,9	18,635	4,4095	4,3902
264,2	18,612	4,4134	4,3942
264,4	18,688	4,4187	4,3994
264,7	18,771	4,4254	4,4062
265	18,777	4,429	4,4098
265,2	18,775	4,4333	4,4141
265,5	18,754	4,4367	4,4174
265,8	18,902	4,4434	4,4241
266	18,754	4,444	4,4248
266,3	18,71	4,4473	4,4281
266,6	18,825	4,4536	4,4344
266,9	18,874	4,4589	4,4396
267,1	18,835	4,4624	4,4431
267,4	18,913	4,4684	4,4492
267,7	18,98	4,4746	4,4553
267,9	18,927	4,4777	4,4585
268,2	18,986	4,4834	4,4641
268,5	18,933	4,4861	4,4669
268,7	18,921	4,49	4,4708
269	18,855	4,4931	4,4738
269,3	18,877	4,4974	4,4781
269,5	18,982	4,5036	4,4843
269,8	18,942	4,5075	4,4882
270,1	18,931	4,512	4,4927
270,3	19,094	4,5203	4,5011
270,6	19,009	4,5225	4,5032
270,9	18,863	4,5257	4,5065
271,1	18,939	4,531	4,5117
271,4	18,848	4,5348	4,5155
271,7	18,807	4,5393	4,52
272	18,797	4,5417	4,5224
272,2	18,844	4,548	4,5287
272,5	18,853	4,5522	4,533
272,8	18,808	4,5562	4,5369
273	18,915	4,562	4,5428
273,3	19,213	4,5723	4,553
273,6	19,058	4,5739	4,5547
273,8	18,837	4,574	4,5547
274,1	18,859	4,5788	4,5595
274,4	18,98	4,5843	4,565
274,6	18,941	4,5879	4,5687
274,9	18,927	4,5912	4,5719
275,2	19,047	4,5974	4,5781
275,4	19,022	4,6008	4,5815
275,7	19,105	4,6066	4,5873
276	19,133	4,6113	4,592
276,2	19,348	4,6202	4,6009
276,5	19,137	4,6208	4,6015
276,8	18,927	4,6212	4,6019
277,1	19,212	4,6296	4,6103
277,3	19,158	4,6328	4,6136
277,6	19,06	4,6359	4,6166
277,9	19,112	4,6411	4,6219
278,1	19,189	4,6464	4,6272
278,4	19,195	4,651	4,6318
278,7	19,2	4,6556	4,6364
278,9	19,205	4,6602	4,6409
279,2	19,523	4,6718	4,6526
279,5	19,291	4,6719	4,6527
279,7	19,059	4,6721	4,6528
280	18,882	4,6732	4,654
280,3	19,163	4,6818	4,6625
280,5	19,073	4,6849	4,6656
280,8	19,093	4,691	4,6718
281,1	19,125	4,6961	4,6768
281,3	19,071	4,6998	4,6805
281,6	19,126	4,7049	4,6857
281,9	19,208	4,7117	4,6924
282,2	19,244	4,7176	4,6983
282,4	19,015	4,718	4,6987
282,7	19,043	4,7226	4,7033
283	19,039	4,7288	4,7095
283,2	18,88	4,7305	4,7112
283,5	18,899	4,7343	4,715
283,8	18,99	4,7396	4,7203
284	18,955	4,7453	4,7261
284,3	18,935	4,7499	4,7306
284,6	18,914	4,7544	4,7352
284,8	19,151	4,7641	4,7448
285,1	18,894	4,7644	4,7451
285,4	18,636	4,7646	4,7454
285,6	18,946	4,775	4,7557
285,9	18,744	4,7756	4,7564
286,2	18,631	4,7789	4,7596
286,4	18,632	4,7845	4,7652
286,7	18,75	4,7899	4,7706
287	18,624	4,7941	4,7748
287,3	18,538	4,7977	4,7784
287,5	18,655	4,8051	4,7858
287,8	18,605	4,8096	4,7904
288,1	18,57	4,8146	4,7954
288,3	18,464	4,8178	4,7985
288,6	18,438	4,8231	4,8039
288,9	18,224	4,8243	4,8051
289,1	18,188	4,8286	4,8093
289,4	18,208	4,834	4,8148
289,7	18,172	4,8388	4,8195
289,9	18,089	4,8427	4,8235
290,2	18,049	4,8484	4,8291
290,5	18,056	4,855	4,8357
290,7	17,888	4,8601	4,8408
291	17,732	4,8619	4,8426
291,3	17,667	4,8664	4,8471
291,6	17,642	4,8715	4,8523
291,8	17,461	4,874	4,8547
292,1	17,396	4,8784	4,8591
292,4	17,325	4,883	4,8637
292,6	17,226	4,888	4,8687
292,9	17,154	4,8922	4,8729
293,2	17,089	4,8979	4,8786
293,4	17,234	4,9085	4,8892
293,7	16,782	4,9085	4,8892
294	16,457	4,9085	4,8892
294,2	16,641	4,9179	4,8987
294,5	16,443	4,9191	4,8998
294,8	16,276	4,9223	4,903
295	16,219	4,9272	4,908
295,3	16,292	4,9327	4,9135
295,6	16,221	4,9373	4,9181
295,8	16,157	4,942	4,9227
296,1	16,111	4,9467	4,9274
296,4	16,372	4,9583	4,939
296,7	16,044	4,9583	4,9391
296,9	15,744	4,9584	4,9391
297,2	15,802	4,9648	4,9456
297,5	15,725	4,9674	4,9481
297,7	15,634	4,9711	4,9519
298	15,675	4,9776	4,9584
298,3	15,612	4,9823	4,963
298,5	15,518	4,986	4,9668
298,8	15,548	4,9918	4,9726
299,1	15,723	5,0012	4,9819
299,3	15,476	5,0022	4,9829
299,6	15,23	5,0028	4,9836
299,9	15,272	5,009	4,9898
300,1	15,23	5,0144	4,9952
300,4	15,065	5,0161	4,9969
300,7	15,032	5,0204	5,0012
300,9	15,072	5,0266	5,0074
301,2	15,013	5,0311	5,0119
301,5	14,954	5,0357	5,0164
301,8	14,895	5,04	5,0207
302	15,035	5,05	5,0308
302,3	14,715	5,0501	5,0309
302,6	14,508	5,0502	5,031
302,8	14,774	5,0603	5,041
303,1	14,557	5,061	5,0417
303,4	14,498	5,0652	5,046
303,6	14,573	5,0718	5,0526
303,9	14,481	5,0757	5,0565
304,2	14,388	5,0797	5,0604
304,4	14,452	5,0856	5,0664
304,7	14,687	5,0963	5,077
305	14,458	5,0986	5,0794
305,2	14,126	5,0987	5,0794
305,5	13,951	5,0988	5,0795
305,8	14,182	5,1084	5,0892
306	14,042	5,1112	5,092
306,3	13,989	5,1145	5,0953
306,6	14,05	5,1211	5,1018
306,9	13,974	5,1252	5,106
307,1	13,897	5,1293	5,11
307,4	13,997	5,1358	5,1165
307,7	13,927	5,1407	5,1215
307,9	13,895	5,146	5,1268
308,2	13,757	5,1484	5,1292
308,5	13,631	5,1515	5,1323
308,7	13,634	5,1569	5,1376
309	13,55	5,1604	5,1411
309,3	13,525	5,164	5,1448
309,5	13,539	5,1699	5,1506
309,8	13,471	5,1734	5,1542
310,1	13,486	5,1792	5,1599
310,3	13,461	5,1842	5,165
310,6	13,511	5,1915	5,1723
310,9	13,262	5,1924	5,1732
311,1	13,181	5,1959	5,1767
311,4	13,278	5,2036	5,1844
311,7	13,109	5,2042	5,185
312	13,107	5,2085	5,1892
312,2	13,11	5,2147	5,1954
312,5	13,124	5,2193	5,2
312,8	13,086	5,2239	5,2046
313	13,048	5,2285	5,2093
313,3	13,01	5,2331	5,2139
313,6	13,11	5,2421	5,2229
313,8	12,842	5,2422	5,2229
314,1	12,667	5,2426	5,2233
314,4	12,879	5,2524	5,2332
314,6	12,673	5,2532	5,2339
314,9	12,659	5,258	5,2387
315,2	12,72	5,264	5,2448
315,4	12,666	5,2682	5,249
315,7	12,613	5,2724	5,2532
316	12,676	5,2788	5,2596
316,2	12,688	5,2851	5,2659
316,5	12,685	5,2914	5,2722
316,8	12,427	5,2914	5,2722
317,1	12,274	5,2914	5,2722
317,3	12,467	5,3002	5,281
317,6	12,347	5,3035	5,2842
317,9	12,337	5,3079	5,2886
318,1	12,357	5,313	5,2937
318,4	12,35	5,317	5,2978
318,7	12,356	5,3223	5,3031
318,9	12,34	5,327	5,3077
319,2	12,384	5,3342	5,315
319,5	12,183	5,3349	5,3157
319,7	12,252	5,3408	5,3216
320	12,246	5,3467	5,3275
320,3	12,143	5,3486	5,3294
320,5	12,11	5,3521	5,3329
320,8	12,083	5,3571	5,3379
321,1	12,058	5,3619	5,3426
321,4	12,111	5,3664	5,3472
321,6	12,063	5,3713	5,3521
321,9	12,11	5,3777	5,3584
322,2	12,095	5,3831	5,3639
322,4	11,892	5,3836	5,3643
322,7	12,016	5,391	5,3718
323	11,957	5,3946	5,3754
323,2	11,815	5,3961	5,3769
323,5	11,822	5,4011	5,3818
323,8	11,893	5,4076	5,3884
324	11,837	5,4116	5,3924
324,3	11,819	5,4164	5,3971
324,6	11,802	5,4211	5,4018
324,8	11,784	5,4258	5,4066
325,1	11,898	5,4352	5,4159
325,4	11,641	5,4353	5,4161
325,6	11,507	5,4355	5,4162
325,9	11,704	5,4442	5,425
326,2	11,619	5,4465	5,4273
326,5	11,617	5,451	5,4317
326,7	11,624	5,4564	5,4371
327	11,609	5,4605	5,4412
327,3	11,584	5,4648	5,4455
327,5	11,666	5,4709	5,4517
327,8	11,693	5,4783	5,4591
328,1	11,457	5,4787	5,4594
328,3	11,325	5,4792	5,46
328,6	11,589	5,49	5,4707
328,9	11,394	5,491	5,4717
329,1	11,383	5,4945	5,4752
329,4	11,388	5,5007	5,4814
329,7	11,425	5,5055	5,4862
329,9	11,41	5,5104	5,4912
330,2	11,395	5,5152	5,4959
330,5	11,42	5,5213	5,502
330,7	11,446	5,5276	5,5083
331	11,235	5,5276	5,5083
331,3	11,183	5,5296	5,5103
331,6	11,267	5,5372	5,5179
331,8	11,166	5,5404	5,5211
332,1	11,195	5,5432	5,5239
332,4	11,251	5,5508	5,5316
332,6	11,163	5,5549	5,5356
332,9	11,074	5,5588	5,5396
333,2	11,018	5,5642	5,5449
333,4	10,928	5,5763	5,5571
333,7	10,539	5,5764	5,5571
334	10,376	5,5764	5,5571
334,2	10,213	5,5764	5,5572
334,5	10,438	5,5877	5,5685
334,8	10,346	5,5896	5,5704
335	10,256	5,5933	5,5741
335,3	10,064	5,5999	5,5807
335,6	9,4588	5,6037	5,5845
335,8	9,333	5,6079	5,5887
336,1	9,3409	5,6147	5,5954
336,4	9,4926	5,6231	5,6038
336,7	9,3032	5,6232	5,6039
336,9	9,1613	5,6233	5,6041
337,2	9,3277	5,6328	5,6136
337,5	9,2077	5,6337	5,6145
337,7	9,1892	5,6374	5,6181
338	9,262	5,6445	5,6252
338,3	9,2356	5,6493	5,63
338,5	9,1698	5,6524	5,6332
338,8	9,1989	5,6586	5,6394
339,1	9,1176	5,6658	5,6466
339,3	8,9255	5,6673	5,6481
339,6	8,882	5,6721	5,6528
339,9	8,8239	5,6766	5,6573
340,1	8,662	5,6801	5,6609
340,4	8,4926	5,6833	5,664
340,7	8,3913	5,6869	5,6676
340,9	8,3188	5,6942	5,6749
341,2	8,1524	5,6985	5,6792
341,5	7,9861	5,7028	5,6836
341,8	7,8244	5,7068	5,6876
342	7,7564	5,7183	5,699
342,3	7,4375	5,7183	5,6991
342,6	7,2284	5,7184	5,6992
342,8	7,1234	5,7201	5,7009
343,1	7,1153	5,7287	5,7094
343,4	6,949	5,7319	5,7126
343,6	6,826	5,738	5,7188
343,9	6,7076	5,7422	5,723
344,2	6,621	5,747	5,7277
344,4	6,5303	5,7525	5,7332
344,7	6,4554	5,7588	5,7396
345	6,3617	5,7636	5,7443
345,2	6,2008	5,764	5,7447
345,5	6,2297	5,77	5,7507
345,8	6,1965	5,7757	5,7564
346	6,079	5,7768	5,7575
346,3	6,0531	5,7811	5,7619
346,6	6,0248	5,7871	5,7679
346,9	5,9905	5,7921	5,7728
347,1	5,9457	5,7966	5,7774
347,4	5,9111	5,8014	5,7822
347,7	5,8615	5,8071	5,7878
347,9	5,8238	5,8117	5,7925
348,2	5,8057	5,8171	5,7979
348,5	5,7156	5,8188	5,7995
348,7	5,7471	5,8259	5,8067
349	5,6189	5,8263	5,8071
349,3	5,5982	5,8301	5,8108
349,5	5,5847	5,8369	5,8177
349,8	5,5592	5,8415	5,8223
350,1	5,5255	5,8462	5,8269
350,3	5,4918	5,8509	5,8317
350,6	5,4636	5,8578	5,8386
350,9	5,4005	5,8604	5,8412
351,1	5,3095	5,8635	5,8443
351,4	5,3361	5,8682	5,849
351,7	5,2903	5,8723	5,853
352	5,2225	5,8759	5,8566
352,2	5,2077	5,881	5,8617
352,5	5,1834	5,8856	5,8664
352,8	5,1415	5,8902	5,871
353	5,1153	5,8953	5,876
353,3	5,149	5,904	5,8848
353,6	5,0303	5,9057	5,8864
353,8	4,9375	5,9064	5,8872
354,1	4,9617	5,9139	5,8946
354,4	4,911	5,9179	5,8987
354,6	4,8602	5,9206	5,9014
354,9	4,8151	5,925	5,9057
355,2	4,7974	5,9306	5,9113
355,4	4,757	5,9343	5,9151
355,7	4,7194	5,9395	5,9202
356	4,6995	5,9444	5,9252
356,3	4,6698	5,9503	5,9311
356,5	4,6344	5,9569	5,9376
356,8	4,4958	5,9571	5,9378
357,1	4,4335	5,9581	5,9388
357,3	4,5273	5,9673	5,9481
357,6	4,434	5,9698	5,9506
357,9	4,4207	5,9738	5,9545
358,1	4,4073	5,9793	5,9601
358,4	4,3742	5,985	5,9658
358,7	4,3334	5,9894	5,9701
358,9	4,2926	5,9938	5,9745
359,2	4,3483	6,0051	5,9858
359,5	4,1991	6,0057	5,9864
359,7	4,1107	6,0057	5,9865
360	4,1025	6,0084	5,9892
360,3	4,16	6,0167	5,9974
360,5	4,0777	6,0195	6,0002
360,8	4,0489	6,0235	6,0042
361,1	4,0532	6,0285	6,0093
361,4	4,0231	6,0331	6,0138
361,6	3,997	6,0384	6,0191
361,9	3,9708	6,0432	6,024
362,2	3,9993	6,0536	6,0343
362,4	3,8239	6,0537	6,0345
362,7	3,7616	6,0539	6,0346
363	3,7672	6,0583	6,0391
363,2	3,7805	6,0641	6,0449
363,5	3,7158	6,0677	6,0485
363,8	3,6945	6,0745	6,0552
364	3,6536	6,0783	6,0591
364,3	3,6041	6,0818	6,0625
364,6	3,6221	6,088	6,0687
364,8	3,5953	6,0953	6,0761
365,1	3,4882	6,0954	6,0762
365,4	3,51	6,102	6,0828
365,6	3,4607	6,1056	6,0863
365,9	3,4115	6,1094	6,0902
366,2	3,3719	6,1128	6,0936
366,5	3,3399	6,1174	6,0981
366,7	3,322	6,1226	6,1034
367	3,2892	6,1271	6,1079
367,3	3,2577	6,1322	6,1129
367,5	3,235	6,1375	6,1183
367,8	3,2799	6,1494	6,1302
368,1	3,1252	6,1494	6,1302
368,3	3,0559	6,1495	6,1302
368,6	3,0074	6,1495	6,1302
368,9	3,092	6,1598	6,1406
369,1	3,0223	6,1618	6,1426
369,4	3,0036	6,1681	6,1488
369,7	2,9833	6,1722	6,1529
369,9	2,9381	6,1767	6,1574
370,2	2,9129	6,1813	6,1621
370,5	2,9349	6,1902	6,171
370,7	2,8466	6,1945	6,1752
371	2,7524	6,1945	6,1753
371,3	2,7283	6,197	6,1777
371,6	2,747	6,2036	6,1844
371,8	2,6913	6,2069	6,1876
372,1	2,6579	6,2108	6,1916
372,4	2,6906	6,2188	6,1996
372,6	2,6211	6,2203	6,201
372,9	2,5922	6,2253	6,2061
373,2	2,5714	6,2313	6,2121
373,4	2,631	6,2437	6,2245
373,7	2,5407	6,2445	6,2253
374	2,4592	6,2445	6,2253
374,2	2,4214	6,2445	6,2253
374,5	2,4764	6,2534	6,2342
374,8	2,4239	6,2556	6,2363
375	2,3977	6,2606	6,2413
375,3	2,385	6,2667	6,2475
375,6	2,3536	6,2711	6,2518
375,8	2,3175	6,2758	6,2566
376,1	2,2813	6,2806	6,2613
376,4	2,2687	6,2918	6,2726
376,7	2,164	6,2919	6,2726
376,9	2,1148	6,2919	6,2727
377,2	2,0732	6,2917	6,2725
377,5	2,1387	6,3018	6,2826
377,7	2,1026	6,3044	6,2852
378	2,068	6,3102	6,2909
378,3	2,0319	6,3152	6,2959
378,5	1,9851	6,3188	6,2996
378,8	1,9605	6,3253	6,3061
379,1	1,9701	6,3387	6,3194
379,3	1,825	6,3381	6,3188
379,6	1,767	6,3383	6,319
379,9	1,7122	6,3383	6,319
380,1	1,6965	6,3407	6,3215
380,4	1,7292	6,3503	6,331
380,7	1,6691	6,3538	6,3346
380,9	1,636	6,3605	6,3412
381,2	1,6036	6,3636	6,3444
381,5	1,5775	6,3702	6,3509
381,8	1,5462	6,3756	6,3564
382	1,477	6,3804	6,3611
382,3	1,4519	6,3836	6,3643
382,6	1,4059	6,3877	6,3684
382,8	1,3594	6,3917	6,3724
383,1	1,3221	6,3964	6,3772
383,4	1,2835	6,3989	6,3797
383,6	1,2446	6,4032	6,384
383,9	1,1931	6,4092	6,39
384,2	1,1483	6,4141	6,3948
384,4	1,1209	6,4192	6,4
384,7	1,089	6,4243	6,4051
385	1,0592	6,4337	6,4145
385,2	0,97942	6,4337	6,4145
385,5	0,9523	6,4337	6,4145
385,8	0,96895	6,4403	6,421
386	0,94685	6,445	6,4258
386,3	0,9168	6,4489	6,4297
386,6	0,90394	6,4543	6,435
386,9	0,89107	6,4587	6,4394
387,1	0,88317	6,4623	6,4431
387,4	0,87735	6,468	6,4488
387,7	0,89205	6,479	6,4597
387,9	0,85128	6,479	6,4597
388,2	0,82904	6,479	6,4597
388,5	0,84862	6,4853	6,4661
388,7	0,87555	6,49	6,4707
389	0,86973	6,4929	6,4736
389,3	0,86948	6,4974	6,4782
389,5	0,88327	6,5033	6,484
389,8	0,89225	6,5074	6,4882
390,1	0,90124	6,5117	6,4925
390,3	0,91259	6,5177	6,4985
390,6	0,92695	6,5237	6,5045
390,9	0,94862	6,5266	6,5074
391,2	0,94176	6,5319	6,5126
391,4	0,95435	6,5355	6,5162
391,7	0,96898	6,5394	6,5201
392	0,98553	6,5422	6,523
392,2	0,99722	6,547	6,5278
392,5	1,0261	6,5525	6,5332
392,8	1,0374	6,5555	6,5363
393	1,0565	6,5617	6,5424
393,3	1,0777	6,5666	6,5473
393,6	1,1517	6,5776	6,5584
393,8	1,1207	6,5777	6,5584
394,1	1,0898	6,5777	6,5585
394,4	1,0857	6,5778	6,5585
394,6	1,158	6,5889	6,5696
394,9	1,1536	6,5922	6,573
395,2	1,149	6,5969	6,5777
395,4	1,1418	6,6011	6,5819
395,7	1,0597	6,6062	6,587
396	-0,58476	6,6113	6,5921
396,3	-0,58457	6,6183	6,599
396,5	-0,58438	6,6248	6,6056
396,8	-0,58419	6,6248	6,6056
397,1	-0,584	6,6249	6,6056
397,3	-0,58381	6,6342	6,615
397,6	-0,58457	6,6365	6,6173
397,9	-0,58599	6,6403	6,6211
398,1	-0,58741	6,6464	6,6272
398,4	-0,5848	6,6513	6,632
398,7	-0,58044	6,6548	6,6355
398,9	-0,57434	6,6625	6,6432
399,2	-0,57337	6,6655	6,6463
399,5	-0,57783	6,6715	6,6522
399,7	-0,57765	6,6738	6,6546
399,8	-0,5768